File: AbsorptionAnalysis/Absorption - Correction Files/Absorption BG Susbtraction/DodecaneCryostatFilm/Dodecane_KIT_Vac_1420.txt
Dodecane_KIT_Vac_1420
Wavelength (nm),Abs
2655,0.0776337
2653,0.0779133
2651,0.078123
2649,0.079235
2647,0.0787805
2645,0.0808194
2643,0.0789434
2641,0.0797153
2639,0.0791856
2637,0.0796768
2635,0.0776225
2633,0.0800154
2631,0.0763157
2629,0.0797882
2627,0.080356
2625,0.0794363
2623,0.0795852
2621,0.075764
2619,0.0799204
2617,0.0783868
2615,0.0794885
2613,0.0812339
2611,0.0783282
2609,0.0812844
2607,0.0798619
2605,0.0788355
2603,0.0784623
2601,0.0791936
2599,0.0796485
2597,0.0769169
2595,0.0809891
2593,0.0817732
2591,0.0791855
2589,0.078737
2587,0.082672
2585,0.0773689
2583,0.0795233
2581,0.0794362
2579,0.0800495
2577,0.0821194
2575,0.080464
2573,0.0810472
2571,0.0798521
2569,0.0799034
2567,0.0805173
2565,0.0795411
2563,0.0776549
2561,0.0806367
2559,0.0806929
2557,0.0806675
2555,0.0809125
2553,0.0803248
2551,0.0811062
2549,0.0811815
2547,0.081127
2545,0.0809427
2543,0.0804387
2541,0.0807305
2539,0.0811594
2537,0.0803048
2535,0.0807129
2533,0.0805492
2531,0.080988
2529,0.0814281
2527,0.0812103
2525,0.0813091
2523,0.0815582
2521,0.08189
2519,0.0815947
2517,0.0816501
2515,0.082119
2513,0.0816642
2511,0.0820195
2509,0.0818408
2507,0.0820656
2505,0.0817495
2503,0.0822348
2501,0.0823946
2499,0.0820237
2497,0.0825409
2495,0.0823582
2493,0.0824876
2491,0.0825939
2489,0.0826281
2487,0.0828078
2485,0.0827936
2483,0.0829729
2481,0.0827589
2479,0.0828117
2477,0.083182
2475,0.0830711
2473,0.0830612
2471,0.0833887
2469,0.0831653
2467,0.0834905
2465,0.0833446
2463,0.0835542
2461,0.0838695
2459,0.0835667
2457,0.0837184
2455,0.0840418
2453,0.0838372
2451,0.0840869
2449,0.0840929
2447,0.0841442
2445,0.084433
2443,0.0843491
2441,0.0843275
2439,0.0846011
2437,0.0845561
2435,0.0849313
2433,0.0847766
2431,0.0848223
2429,0.0851213
2427,0.0850465
2425,0.085364
2423,0.0852896
2421,0.0853379
2419,0.0855685
2417,0.0856527
2415,0.085688
2413,0.0859107
2411,0.0859371
2409,0.086011
2407,0.0863955
2405,0.0862849
2403,0.0863306
2401,0.0867069
2399,0.0864473
2397,0.0866919
2395,0.0870804
2393,0.0868469
2391,0.0871637
2389,0.0873648
2387,0.0873373
2385,0.0876248
2383,0.0876536
2381,0.087722
2379,0.0880778
2377,0.0880349
2375,0.0883054
2373,0.0884034
2371,0.0884532
2369,0.0887285
2367,0.0887538
2365,0.0891357
2363,0.089107
2361,0.08944
2359,0.0894702
2357,0.0897005
2355,0.0899994
2353,0.0898691
2351,0.0902267
2349,0.0903914
2347,0.0907383
2345,0.0906933
2343,0.091051
2341,0.091221
2339,0.0912339
2337,0.0915746
2335,0.0917064
2333,0.0919355
2331,0.0918536
2329,0.0924196
2327,0.0924387
2325,0.0926154
2323,0.0930741
2321,0.0931253
2319,0.0933196
2317,0.0934072
2315,0.0938978
2313,0.093775
2311,0.0942222
2309,0.0944116
2307,0.0946957
2305,0.094788
2303,0.0953239
2301,0.0952069
2299,0.0955297
2297,0.0957388
2295,0.0962617
2293,0.0960749
2291,0.0963882
2289,0.0968092
2287,0.0969065
2285,0.0971033
2283,0.0978938
2281,0.0977493
2279,0.0980036
2277,0.0978668
2275,0.0987219
2273,0.0987208
2271,0.0993096
2269,0.0995201
2267,0.100048
2265,0.100063
2263,0.100191
2261,0.100522
2259,0.101278
2257,0.101239
2255,0.101408
2253,0.101804
2251,0.102174
2249,0.102524
2247,0.102775
2245,0.103446
2243,0.10362
2241,0.103887
2239,0.10423
2237,0.104434
2235,0.105077
2233,0.105207
2231,0.105924
2229,0.105794
2227,0.10634
2225,0.10706
2223,0.106997
2221,0.107658
2219,0.107824
2217,0.108349
2215,0.10881
2213,0.109129
2211,0.109867
2209,0.109968
2207,0.110298
2205,0.11087
2203,0.111201
2201,0.111851
2199,0.111826
2197,0.112408
2195,0.112965
2193,0.113249
2191,0.113327
2189,0.114243
2187,0.114242
2185,0.114801
2183,0.115355
2181,0.115649
2179,0.115997
2177,0.116733
2175,0.117017
2173,0.117587
2171,0.118155
2169,0.118383
2167,0.118761
2165,0.119484
2163,0.119794
2161,0.120428
2159,0.12094
2157,0.121444
2155,0.121802
2153,0.122211
2151,0.122829
2149,0.123364
2147,0.123727
2145,0.124485
2143,0.124751
2141,0.125446
2139,0.12601
2137,0.126505
2135,0.126913
2133,0.127511
2131,0.128024
2129,0.128511
2127,0.129108
2125,0.129685
2123,0.130348
2121,0.130917
2119,0.13134
2117,0.132253
2115,0.13259
2113,0.133382
2111,0.133936
2109,0.134353
2107,0.135312
2105,0.135811
2103,0.136312
2101,0.137178
2099,0.137689
2097,0.138389
2095,0.138957
2093,0.139546
2091,0.140349
2089,0.141011
2087,0.141881
2085,0.142394
2083,0.143144
2081,0.143921
2079,0.144691
2077,0.145363
2075,0.146011
2073,0.146737
2071,0.147477
2069,0.14821
2067,0.149033
2065,0.149732
2063,0.150448
2061,0.151266
2059,0.152068
2057,0.152819
2055,0.153636
2053,0.154429
2051,0.155155
2049,0.155891
2047,0.156656
2045,0.157556
2043,0.158328
2041,0.159196
2039,0.160001
2037,0.160749
2035,0.161563
2033,0.16237
2031,0.163268
2029,0.164035
2027,0.1647
2025,0.165496
2023,0.166382
2021,0.167268
2019,0.168207
2017,0.168917
2015,0.169785
2013,0.170491
2011,0.171233
2009,0.172048
2007,0.172917
2005,0.173626
2003,0.174451
2001,0.175341
1999,0.176234
1997,0.176903
1995,0.177636
1993,0.178585
1991,0.179233
1989,0.180139
1987,0.180722
1985,0.181493
1983,0.182211
1981,0.183012
1979,0.183745
1977,0.18434
1975,0.185224
1973,0.185961
1971,0.186657
1969,0.187308
1967,0.187973
1965,0.188868
1963,0.189479
1961,0.190344
1959,0.190888
1957,0.191531
1955,0.192268
1953,0.192907
1951,0.193648
1949,0.194489
1947,0.195044
1945,0.195741
1943,0.19646
1941,0.197098
1939,0.197899
1937,0.198658
1935,0.19917
1933,0.20005
1931,0.200713
1929,0.201304
1927,0.202172
1925,0.202743
1923,0.203604
1921,0.204207
1919,0.205187
1917,0.205708
1915,0.206279
1913,0.20714
1911,0.208077
1909,0.208676
1907,0.209194
1905,0.210426
1903,0.210957
1901,0.211193
1899,0.212528
1897,0.213243
1895,0.213558
1893,0.214508
1891,0.215056
1889,0.215902
1887,0.216438
1885,0.216975
1883,0.217755
1881,0.218403
1879,0.218797
1877,0.21933
1875,0.219727
1873,0.22065
1871,0.221202
1869,0.221561
1867,0.222634
1865,0.222478
1863,0.223157
1861,0.223211
1859,0.224154
1857,0.224352
1855,0.224479
1853,0.22534
1851,0.225131
1849,0.225229
1847,0.226239
1845,0.225897
1843,0.225662
1841,0.22633
1839,0.226413
1837,0.226427
1835,0.226768
1833,0.226411
1831,0.226297
1829,0.226598
1827,0.22622
1825,0.226191
1823,0.225888
1821,0.225953
1819,0.225667
1817,0.225323
1815,0.225199
1813,0.224801
1811,0.224414
1809,0.224125
1807,0.223756
1805,0.223374
1803,0.222914
1801,0.222449
1799,0.222109
1797,0.22155
1795,0.221064
1793,0.220514
1791,0.220029
1789,0.219552
1787,0.219008
1785,0.218375
1783,0.217776
1781,0.217267
1779,0.21657
1777,0.215908
1775,0.215374
1773,0.214653
1771,0.214108
1769,0.213381
1767,0.212802
1765,0.212136
1763,0.211505
1761,0.210821
1759,0.210145
1757,0.209477
1755,0.208835
1753,0.208213
1751,0.207525
1749,0.206794
1747,0.206173
1745,0.205582
1743,0.204806
1741,0.204119
1739,0.203479
1737,0.202874
1735,0.202128
1733,0.201303
1731,0.200755
1729,0.199905
1727,0.199191
1725,0.198553
1723,0.197735
1721,0.197109
1719,0.196258
1717,0.19546
1715,0.194738
1713,0.194037
1711,0.193195
1709,0.192398
1707,0.191745
1705,0.190778
1703,0.189942
1701,0.189211
1699,0.188343
1697,0.187529
1695,0.186742
1693,0.185969
1691,0.185039
1689,0.18424
1687,0.183411
1685,0.182465
1683,0.181676
1681,0.180932
1679,0.179984
1677,0.179223
1675,0.178365
1673,0.17761
1671,0.176753
1669,0.175966
1667,0.175202
1665,0.174357
1663,0.17345
1661,0.172764
1659,0.171863
1657,0.171089
1655,0.170373
1653,0.169465
1651,0.168817
1649,0.167942
1647,0.167123
1645,0.166365
1643,0.165487
1641,0.164753
1639,0.163964
1637,0.163221
1635,0.162473
1633,0.161649
1631,0.160862
1629,0.160094
1627,0.159373
1625,0.158712
1623,0.157943
1621,0.157262
1619,0.156492
1617,0.155786
1615,0.155168
1613,0.154363
1611,0.15375
1609,0.153137
1607,0.152443
1605,0.15184
1603,0.151198
1601,0.15063
1599,0.150098
1597,0.149474
1595,0.149008
1593,0.148441
1591,0.14794
1589,0.147498
1587,0.146928
1585,0.14652
1583,0.146024
1581,0.145678
1579,0.145207
1577,0.144739
1575,0.144362
1573,0.143944
1571,0.143622
1569,0.143231
1567,0.142816
1565,0.14256
1563,0.142192
1561,0.141881
1559,0.141598
1557,0.141229
1555,0.140919
1553,0.140649
1551,0.140324
1549,0.140091
1547,0.139801
1545,0.139552
1543,0.13937
1541,0.13906
1539,0.138849
1537,0.13861
1535,0.138404
1533,0.138224
1531,0.137981
1529,0.137843
1527,0.137638
1525,0.13744
1523,0.137278
1521,0.137125
1519,0.136925
1517,0.136745
1515,0.136615
1513,0.136497
1511,0.13632
1509,0.136188
1507,0.136089
1505,0.135886
1503,0.135834
1501,0.135663
1499,0.13556
1497,0.135514
1495,0.135302
1493,0.135276
1491,0.135163
1489,0.13503
1487,0.135005
1485,0.134799
1483,0.134785
1481,0.1347
1479,0.13464
1477,0.134545
1475,0.134429
1473,0.134449
1471,0.134315
1469,0.134246
1467,0.134245
1465,0.134076
1463,0.134057
1461,0.133979
1459,0.133932
1457,0.133917
1455,0.133802
1453,0.133725
1451,0.133719
1449,0.133645
1447,0.133633
1445,0.133543
1443,0.133445
1441,0.133397
1439,0.133332
1437,0.133351
1435,0.133277
1433,0.133218
1431,0.13318
1429,0.133102
1427,0.13313
1425,0.133
1423,0.133012
1421,0.132896
1419,0.132858
1417,0.132872
1415,0.132793
1413,0.132729
1411,0.132585
1409,0.132643
1407,0.132588
1405,0.132549
1403,0.132508
1401,0.132603
1399,0.132529
1397,0.132367
1395,0.132449
1393,0.132359
1391,0.132336
1389,0.132244
1387,0.132245
1385,0.132202
1383,0.132211
1381,0.132186
1379,0.13204
1377,0.132074
1375,0.131898
1373,0.131783
1371,0.131832
1369,0.131755
1367,0.131756
1365,0.131655
1363,0.131566
1361,0.131778
1359,0.131621
1357,0.131538
1355,0.131531
1353,0.131599
1351,0.131528
1349,0.131474
1347,0.131499
1345,0.131431
1343,0.131431
1341,0.131425
1339,0.131463
1337,0.131477
1335,0.131455
1333,0.131465
1331,0.131457
1329,0.131507
1327,0.131555
1325,0.131546
1323,0.13153
1321,0.131635
1319,0.13164
1317,0.131652
1315,0.131787
1313,0.131826
1311,0.131868
1309,0.131976
1307,0.131951
1305,0.132085
1303,0.13216
1301,0.132223
1299,0.132323
1297,0.132389
1295,0.132519
1293,0.13256
1291,0.132695
1289,0.132852
1287,0.132947
1285,0.133067
1283,0.133211
1281,0.133372
1279,0.133527
1277,0.133655
1275,0.13382
1273,0.134028
1271,0.134179
1269,0.134425
1267,0.134589
1265,0.1348
1263,0.13505
1261,0.135251
1259,0.135507
1257,0.135776
1255,0.136016
1253,0.136301
1251,0.136581
1249,0.136857
1247,0.137149
1245,0.137476
1243,0.137751
1241,0.138077
1239,0.138383
1237,0.138726
1235,0.139031
1233,0.139413
1231,0.139761
1229,0.140177
1227,0.140544
1225,0.140918
1223,0.141364
1221,0.141745
1219,0.14222
1217,0.14264
1215,0.143078
1213,0.143581
1211,0.144056
1209,0.144546
1207,0.145084
1205,0.145625
1203,0.146118
1201,0.146726
1199,0.147111
1197,0.147633
1195,0.148285
1193,0.148869
1191,0.149408
1189,0.150116
1187,0.150679
1185,0.15129
1183,0.152001
1181,0.152584
1179,0.153245
1177,0.153914
1175,0.154497
1173,0.155166
1171,0.155794
1169,0.156464
1167,0.157173
1165,0.157735
1163,0.158441
1161,0.159082
1159,0.15977
1157,0.160467
1155,0.161089
1153,0.161798
1151,0.162511
1149,0.16322
1147,0.164044
1145,0.164818
1143,0.165666
1141,0.166541
1139,0.167441
1137,0.168348
1135,0.169351
1133,0.170375
1131,0.171395
1129,0.172421
1127,0.173508
1125,0.174607
1123,0.175738
1121,0.176876
1119,0.178066
1117,0.179164
1115,0.180306
1113,0.181421
1111,0.182557
1109,0.183591
1107,0.184709
1105,0.185635
1103,0.186641
1101,0.18756
1099,0.18842
1097,0.189183
1095,0.189906
1093,0.190578
1091,0.19111
1089,0.191598
1087,0.192127
1085,0.192475
1083,0.192884
1081,0.193284
1079,0.193586
1077,0.193895
1075,0.194242
1073,0.194593
1071,0.195023
1069,0.195415
1067,0.195856
1065,0.196363
1063,0.196901
1061,0.197466
1059,0.198068
1057,0.198723
1055,0.199461
1053,0.200169
1051,0.200959
1049,0.201727
1047,0.202533
1045,0.203254
1043,0.20394
1041,0.204722
1039,0.205284
1037,0.205869
1035,0.206411
1033,0.20681
1031,0.207239
1029,0.207423
1027,0.207614
1025,0.207794
1023,0.207689
1021,0.207663
1019,0.207533
1017,0.207269
1015,0.20707
1013,0.206758
1011,0.206393
1009,0.206034
1007,0.205609
1005,0.20511
1003,0.204595
1001,0.204066
999,0.203532
997,0.20297
995,0.202348
993,0.201626
991,0.200888
989,0.200199
987,0.199495
985,0.198761
983,0.198008
981,0.19721
979,0.196566
977,0.195785
975,0.195132
973,0.194503
971,0.193763
969,0.193221
967,0.192645
965,0.192035
963,0.191537
961,0.190922
959,0.190438
957,0.189777
955,0.18919
953,0.188606
951,0.187935
949,0.187227
947,0.186529
945,0.185873
943,0.185016
941,0.184297
939,0.183602
937,0.182782
935,0.182078
933,0.181315
931,0.180629
929,0.179835
927,0.179006
925,0.178157
923,0.177481
921,0.176572
919,0.175831
917,0.17483
915,0.174167
913,0.173375
911,0.172547
909,0.17165
907,0.171121
905,0.170273
903,0.169628
901,0.168892
899,0.17018
897,0.171851
895,0.170924
893,0.166246
891,0.163527
889,0.163893
887,0.165341
885,0.165491
883,0.169348
881,0.16455
879,0.164496
877,0.165957
875,0.162625
873,0.16588
871,0.166135
869,0.162041
867,0.160829
865,0.161669
863,0.163797
861,0.163558
859,0.163435
857,0.162629
855,0.16121
853,0.161574
851,0.161969
849,0.161216
847,0.161518
845,0.160813
843,0.161361
841,0.1609
839,0.160103
837,0.160794
835,0.160324
833,0.161248
831,0.160717
829,0.16134
827,0.161089
825,0.161665
823,0.161275
821,0.1617
819,0.162138
817,0.162684
815,0.16294
813,0.162745
811,0.163817
809,0.164376
807,0.164633
805,0.164607
803,0.165416
801,0.165891
799,0.166414
797,0.167162
795,0.16744
793,0.167679
791,0.16858
789,0.16875
787,0.1696
785,0.1697
783,0.170276
781,0.170903
779,0.17111
777,0.171724
775,0.172538
773,0.173363
771,0.173926
769,0.174904
767,0.175822
765,0.176583
763,0.177874
761,0.178823
759,0.179961
757,0.180757
755,0.182127
753,0.182977
751,0.183905
749,0.184878
747,0.185269
745,0.186051
743,0.186646
741,0.187115
739,0.187455
737,0.187543
735,0.187913
733,0.187898
731,0.188058
729,0.187966
727,0.188346
725,0.188518
723,0.188741
721,0.189028
719,0.189257
717,0.189664
715,0.18997
713,0.190491
711,0.190784
709,0.191309
707,0.191539
705,0.191631
703,0.191655
701,0.192059
699,0.192015
697,0.191618
695,0.191597
693,0.191431
691,0.19117
689,0.190826
687,0.190405
685,0.190182
683,0.18976
681,0.189358
679,0.189129
677,0.188772
675,0.188431
673,0.188024
671,0.187467
669,0.187252
667,0.186878
665,0.186476
663,0.186192
661,0.185885
659,0.18571
657,0.185409
655,0.185251
653,0.185082
651,0.184713
649,0.184516
647,0.184339
645,0.184136
643,0.183859
641,0.183308
639,0.183241
637,0.182925
635,0.182497
633,0.182181
631,0.181987
629,0.181868
627,0.181607
625,0.181561
623,0.18138
621,0.181244
619,0.181061
617,0.181067
615,0.181253
613,0.181098
611,0.181305
609,0.1814
607,0.181617
605,0.181947
603,0.182593
601,0.183147
599,0.183574
597,0.184064
595,0.184447
593,0.185157
591,0.185479
589,0.185719
587,0.186012
585,0.186294
583,0.186376
581,0.186501
579,0.186629
577,0.186987
575,0.187285
573,0.187905
571,0.188428
569,0.189192
567,0.190223
565,0.191203
563,0.192202
561,0.193073
559,0.193996
557,0.194746
555,0.195174
553,0.195349
551,0.195236
549,0.194964
547,0.194757
545,0.194418
543,0.194088
541,0.193951
539,0.194063
537,0.194678
535,0.195389
533,0.195978
531,0.19691
529,0.197627
527,0.19874
525,0.199267
523,0.199594
521,0.20011
519,0.200335
517,0.200202
515,0.200251
513,0.200451
511,0.200707
509,0.201238
507,0.201604
505,0.202265
503,0.203329
501,0.203995
499,0.205595
497,0.206608
495,0.207639
493,0.20839
491,0.208328
489,0.208283
487,0.207849
485,0.20677
483,0.206563
481,0.206
479,0.205962
477,0.206437
475,0.206908
473,0.208242
471,0.209445
469,0.210265
467,0.211145
465,0.211409
463,0.211115
461,0.210544
459,0.20978
457,0.209225
455,0.209071
453,0.209414
451,0.209551
449,0.210556
447,0.211283
445,0.212081
443,0.213123
441,0.21377
439,0.214303
437,0.214692
435,0.215285
433,0.215775
431,0.216373
429,0.21688
427,0.218141
425,0.218867
423,0.220149
421,0.220908
419,0.221522
417,0.221351
415,0.221705
413,0.222144
411,0.222675
409,0.22376
407,0.224347
405,0.225737
403,0.227479
401,0.228592
399,0.230049
397,0.230645
395,0.230886
393,0.231655
391,0.232165
389,0.233027
387,0.234081
385,0.234992
383,0.236388
381,0.237962
379,0.239653
377,0.241346
375,0.24288
373,0.244486
371,0.246175
369,0.247513
367,0.248494
365,0.249289
363,0.249886
361,0.251396
359,0.253451
357,0.256009
355,0.258154
353,0.259969
351,0.262485
349,0.261835
347,0.263397
345,0.265099
343,0.267298
341,0.268659
339,0.271213
337,0.274132
335,0.276775
333,0.277744
331,0.280368
329,0.282666
327,0.284841
325,0.287816
323,0.290792
321,0.294605
319,0.29772
317,0.301254
315,0.304692
313,0.309264
311,0.312301
309,0.316867
307,0.320811
305,0.326338
303,0.330495
301,0.335172
299,0.340049
297,0.34447
295,0.349375
293,0.355417
291,0.361207
289,0.366405
287,0.371951
285,0.376735
283,0.381166
281,0.385434
279,0.388905
277,0.392853
275,0.394883
273,0.396842
271,0.397775
269,0.397399
267,0.397417
265,0.395946
263,0.394747
261,0.391777
259,0.389631
257,0.38636
255,0.382768
253,0.378248
251,0.373286
249,0.367891
247,0.361477
245,0.354236
243,0.345477
241,0.338231
239,0.331204
237,0.324522
235,0.31858
233,0.313599
231,0.309756
229,0.306249
227,0.30408
225,0.304922
223,0.31129
221,0.324828
219,0.347504
217,0.381294
215,0.423626
213,0.47031
211,0.513602
209,0.550471
207,0.572542
205,0.582272
203,0.578855
201,0.564103
200,0.553455