File: AbsorptionAnalysis/Absorption - Correction Files/Absorption BG Susbtraction/DodecaneCryostatFilm/Dodecane_KIT_Air_A.txt
Dodecane_KIT_Air_A
Wavelength (nm),Abs
2655,0.0722297
2653,0.0739485
2651,0.0736113
2649,0.0735536
2647,0.0739862
2645,0.0752419
2643,0.0741793
2641,0.0737501
2639,0.0738172
2637,0.073726
2635,0.0724907
2633,0.0753913
2631,0.0670976
2629,0.0751648
2627,0.0740743
2625,0.0737778
2623,0.0737841
2621,0.0707368
2619,0.0755136
2617,0.0716315
2615,0.0739207
2613,0.0752803
2611,0.0735223
2609,0.0752688
2607,0.0754981
2605,0.0754599
2603,0.0740185
2601,0.0736069
2599,0.0736366
2597,0.070808
2595,0.073118
2593,0.075331
2591,0.073374
2589,0.0727942
2587,0.0771276
2585,0.0713248
2583,0.0756428
2581,0.0746852
2579,0.0743432
2577,0.0772265
2575,0.0759156
2573,0.0765356
2571,0.0746763
2569,0.0743257
2567,0.0749292
2565,0.074981
2563,0.0725916
2561,0.075861
2559,0.07523
2557,0.0746869
2555,0.0748578
2553,0.0749443
2551,0.074918
2549,0.0749071
2547,0.0749784
2545,0.075156
2543,0.0749117
2541,0.0747666
2539,0.0755296
2537,0.0742396
2535,0.0751375
2533,0.0750399
2531,0.0749677
2529,0.0753443
2527,0.0750796
2525,0.0755674
2523,0.0756809
2521,0.0756749
2519,0.0756004
2517,0.0759083
2515,0.0757196
2513,0.0758602
2511,0.0758685
2509,0.0755667
2507,0.0756885
2505,0.0757046
2503,0.0762702
2501,0.0760383
2499,0.0758592
2497,0.0760717
2495,0.0760966
2493,0.0762396
2491,0.0761781
2489,0.0763334
2487,0.0765204
2485,0.0763237
2483,0.0764817
2481,0.0764905
2479,0.0764289
2477,0.0768352
2475,0.0768078
2473,0.0769268
2471,0.0771239
2469,0.0767548
2467,0.0771021
2465,0.0768628
2463,0.0770333
2461,0.0772924
2459,0.0770974
2457,0.077285
2455,0.077484
2453,0.0773496
2451,0.0776602
2449,0.0775186
2447,0.0777728
2445,0.0778565
2443,0.0777414
2441,0.0778061
2439,0.0780286
2437,0.0781069
2435,0.0783649
2433,0.0782629
2431,0.0782236
2429,0.0785283
2427,0.0784684
2425,0.0787473
2423,0.0786265
2421,0.0785616
2419,0.0789361
2417,0.079002
2415,0.0789964
2413,0.0791359
2411,0.079174
2409,0.0792634
2407,0.0796065
2405,0.0795764
2403,0.0795218
2401,0.0799135
2399,0.0798173
2397,0.0799083
2395,0.0802436
2393,0.0801447
2391,0.0802794
2389,0.0806477
2387,0.0804117
2385,0.0807148
2383,0.0808678
2381,0.0808152
2379,0.0812553
2377,0.0811181
2375,0.0815115
2373,0.0815917
2371,0.0815117
2369,0.0818051
2367,0.0817431
2365,0.0821083
2363,0.082048
2361,0.082431
2359,0.0825859
2357,0.0826204
2355,0.0829348
2353,0.0828522
2351,0.0832615
2349,0.0834034
2347,0.0836145
2345,0.0836051
2343,0.0838294
2341,0.0841475
2339,0.0840339
2337,0.0844835
2335,0.0844139
2333,0.084674
2331,0.0847292
2329,0.0851568
2327,0.0852478
2325,0.0853654
2323,0.0857937
2321,0.0858233
2319,0.0860521
2317,0.0862507
2315,0.0866071
2313,0.0865728
2311,0.0869138
2309,0.0869742
2307,0.0873138
2305,0.0874736
2303,0.0878382
2301,0.0878934
2299,0.087945
2297,0.0881636
2295,0.0886599
2293,0.0885869
2291,0.0890294
2289,0.0894937
2287,0.0894794
2285,0.0896938
2283,0.0900621
2281,0.0902172
2279,0.0903016
2277,0.09037
2275,0.090767
2273,0.0910068
2271,0.0917282
2269,0.0915918
2267,0.0920621
2265,0.0924154
2263,0.092613
2261,0.0928055
2259,0.0933105
2257,0.0937328
2255,0.0939495
2253,0.0942011
2251,0.0944353
2249,0.0945138
2247,0.0950874
2245,0.0956244
2243,0.0956671
2241,0.0960424
2239,0.0961013
2237,0.0967009
2235,0.0972501
2233,0.0971457
2231,0.097899
2229,0.0979962
2227,0.0984429
2225,0.0988994
2223,0.0990609
2221,0.0997424
2219,0.100019
2217,0.10035
2215,0.100876
2213,0.101184
2211,0.101899
2209,0.1018
2207,0.102419
2205,0.102928
2203,0.103009
2201,0.103628
2199,0.103688
2197,0.104242
2195,0.104678
2193,0.104854
2191,0.10515
2189,0.105842
2187,0.105977
2185,0.106517
2183,0.106868
2181,0.107019
2179,0.107595
2177,0.1081
2175,0.108562
2173,0.109086
2171,0.109373
2169,0.109732
2167,0.110318
2165,0.110925
2163,0.1110624
2161,0.111722
2159,0.111984
2157,0.112654
2155,0.112905
2153,0.113518
2151,0.113926
2149,0.114552
2147,0.114984
2145,0.115414
2143,0.115775
2141,0.116426
2139,0.11698
2137,0.117455
2135,0.117897
2133,0.118423
2131,0.11896
2129,0.119444
2127,0.120043
2125,0.120572
2123,0.120995
2121,0.121548
2119,0.122098
2117,0.122745
2115,0.123271
2113,0.12377
2111,0.124419
2109,0.12496
2107,0.125753
2105,0.126227
2103,0.126826
2101,0.127526
2099,0.128066
2097,0.128726
2095,0.129395
2093,0.1299
2091,0.130664
2089,0.131235
2087,0.131995
2085,0.13249
2083,0.133238
2081,0.134038
2079,0.134665
2077,0.135193
2075,0.136042
2073,0.136706
2071,0.137561
2069,0.138149
2067,0.138867
2065,0.139611
2063,0.14012
2061,0.140883
2059,0.141647
2057,0.142392
2055,0.143275
2053,0.14402
2051,0.144695
2049,0.145336
2047,0.146052
2045,0.146832
2043,0.147602
2041,0.148418
2039,0.149032
2037,0.149805
2035,0.150638
2033,0.151387
2031,0.1522
2029,0.152969
2027,0.153674
2025,0.154432
2023,0.155087
2021,0.155842
2019,0.156897
2017,0.157518
2015,0.1582084
2013,0.159026
2011,0.159756
2009,0.160588
2007,0.161323
2005,0.161962
2003,0.162745
2001,0.163494
1999,0.164248
1997,0.165055
1995,0.165753
1993,0.166492
1991,0.167253
1989,0.167939
1987,0.168593
1985,0.169307
1983,0.169948
1981,0.17063
1979,0.1715
1977,0.172049
1975,0.172794
1973,0.173534
1971,0.17417
1969,0.174896
1967,0.175301
1965,0.176161
1963,0.176834
1961,0.177493
1959,0.178221
1957,0.178805
1955,0.179367
1953,0.180109
1951,0.180768
1949,0.181532
1947,0.182096
1945,0.183012
1943,0.183479
1941,0.184221
1939,0.184999
1937,0.185701
1935,0.186107
1933,0.187001
1931,0.187602
1929,0.188391
1927,0.18909
1925,0.189664
1923,0.190349
1921,0.191279
1919,0.192008
1917,0.192522
1915,0.193261
1913,0.194078
1911,0.194775
1909,0.195202
1907,0.195926
1905,0.197207
1903,0.197579
1901,0.197955
1899,0.199206
1897,0.1995
1895,0.199895
1893,0.200913
1891,0.201413
1889,0.202166
1887,0.202756
1885,0.203289
1883,0.203968
1881,0.204547
1879,0.204838
1877,0.20593
1875,0.206171
1873,0.207244
1871,0.207778
1869,0.207923
1867,0.20883
1865,0.208645
1863,0.209187
1861,0.209515
1859,0.210303
1857,0.210654
1855,0.210643
1853,0.2115
1851,0.21127
1849,0.211624
1847,0.212449
1845,0.211882
1843,0.212096
1841,0.21276
1839,0.212636
1837,0.212837
1835,0.213094
1833,0.212564
1831,0.21284
1829,0.212898
1827,0.212602
1825,0.212536
1823,0.212402
1821,0.212621
1819,0.212188
1817,0.211859
1815,0.211761
1813,0.211447
1811,0.211106
1809,0.210832
1807,0.210651
1805,0.210165
1803,0.209817
1801,0.209477
1799,0.209059
1797,0.208652
1795,0.208151
1793,0.20773
1791,0.207307
1789,0.206857
1787,0.20633
1785,0.205891
1783,0.205256
1781,0.204849
1779,0.204252
1777,0.203809
1775,0.203168
1773,0.202604
1771,0.202156
1769,0.20161
1767,0.200995
1765,0.200409
1763,0.199812
1761,0.199228
1759,0.198665
1757,0.198139
1755,0.197495
1753,0.196905
1751,0.196399
1749,0.19565
1747,0.195156
1745,0.19455
1743,0.193832
1741,0.193265
1739,0.192681
1737,0.192128
1735,0.191446
1733,0.190641
1731,0.190195
1729,0.189496
1727,0.188841
1725,0.188196
1723,0.187458
1721,0.186863
1719,0.186084
1717,0.185381
1715,0.184779
1713,0.183955
1711,0.183229
1709,0.18256
1707,0.181944
1705,0.181096
1703,0.180259
1701,0.179607
1699,0.178834
1697,0.178018
1695,0.177217
1693,0.176489
1691,0.175704
1689,0.174879
1687,0.174108
1685,0.173366
1683,0.172602
1681,0.171851
1679,0.171002
1677,0.170206
1675,0.169461
1673,0.168638
1671,0.16797
1669,0.167208
1667,0.166434
1665,0.165706
1663,0.164815
1661,0.164066
1659,0.16336
1657,0.16253
1655,0.161845
1653,0.161064
1651,0.160312
1649,0.159486
1647,0.158748
1645,0.158027
1643,0.157199
1641,0.156524
1639,0.155683
1637,0.155012
1635,0.154264
1633,0.153569
1631,0.152828
1629,0.152083
1627,0.151392
1625,0.150703
1623,0.149953
1621,0.149303
1619,0.148626
1617,0.147907
1615,0.147285
1613,0.146512
1611,0.145966
1609,0.145332
1607,0.144706
1605,0.144091
1603,0.143478
1601,0.142893
1599,0.14236
1597,0.141744
1595,0.141327
1593,0.140767
1591,0.140223
1589,0.139806
1587,0.139228
1585,0.138873
1583,0.138328
1581,0.137993
1579,0.137549
1577,0.137051
1575,0.136706
1573,0.136296
1571,0.135924
1569,0.135632
1567,0.13519
1565,0.134877
1563,0.134511
1561,0.134203
1559,0.133853
1557,0.133536
1555,0.133248
1553,0.132987
1551,0.132637
1549,0.132463
1547,0.132136
1545,0.131892
1543,0.131629
1541,0.131324
1539,0.131147
1537,0.130922
1535,0.130659
1533,0.130566
1531,0.130244
1529,0.130059
1527,0.129834
1525,0.12969
1523,0.129555
1521,0.12936
1519,0.129131
1517,0.128975
1515,0.128807
1513,0.128752
1511,0.128519
1509,0.128355
1507,0.128262
1505,0.128062
1503,0.127989
1501,0.127814
1499,0.127727
1497,0.127607
1495,0.12743
1493,0.12738
1491,0.127259
1489,0.127147
1487,0.127045
1485,0.1269
1483,0.126897
1481,0.126761
1479,0.126699
1477,0.126629
1475,0.126504
1473,0.126519
1471,0.126391
1469,0.126313
1467,0.126291
1465,0.126132
1463,0.126077
1461,0.125999
1459,0.125939
1457,0.125859
1455,0.125816
1453,0.125725
1451,0.125742
1449,0.125631
1447,0.125573
1445,0.125539
1443,0.125478
1441,0.125405
1439,0.125334
1437,0.125312
1435,0.125199
1433,0.125224
1431,0.125232
1429,0.125035
1427,0.125027
1425,0.124977
1423,0.124954
1421,0.124856
1419,0.124882
1417,0.124756
1415,0.124844
1413,0.124684
1411,0.124638
1409,0.124697
1407,0.124663
1405,0.124592
1403,0.124496
1401,0.124805
1399,0.124425
1397,0.124511
1395,0.124566
1393,0.124428
1391,0.124255
1389,0.124327
1387,0.124218
1385,0.124254
1383,0.124523
1381,0.124333
1379,0.12416
1377,0.124044
1375,0.12392
1373,0.123836
1371,0.123902
1369,0.123867
1367,0.12381
1365,0.123777
1363,0.12375
1361,0.123891
1359,0.123656
1357,0.123558
1355,0.123549
1353,0.123487
1351,0.123449
1349,0.123339
1347,0.123286
1345,0.123331
1343,0.12321
1341,0.123241
1339,0.12323
1337,0.123271
1335,0.123256
1333,0.123259
1331,0.123247
1329,0.123301
1327,0.12328
1325,0.12329
1323,0.123264
1321,0.123314
1319,0.123348
1317,0.123367
1315,0.123457
1313,0.123521
1311,0.123569
1309,0.12361
1307,0.123606
1305,0.123691
1303,0.123751
1301,0.123847
1299,0.123884
1297,0.123979
1295,0.124147
1293,0.124123
1291,0.124256
1289,0.124446
1287,0.124463
1285,0.124619
1283,0.124729
1281,0.124874
1279,0.125014
1277,0.125194
1275,0.125283
1273,0.125463
1271,0.125663
1269,0.12583
1267,0.126057
1265,0.126161
1263,0.126406
1261,0.126591
1259,0.126866
1257,0.127059
1255,0.127345
1253,0.127579
1251,0.127805
1249,0.128092
1247,0.128364
1245,0.128623
1243,0.128932
1241,0.129194
1239,0.129539
1237,0.129843
1235,0.130111
1233,0.130576
1231,0.130845
1229,0.131199
1227,0.13163
1225,0.131878
1223,0.132358
1221,0.132691
1219,0.133159
1217,0.133573
1215,0.134019
1213,0.134481
1211,0.134982
1209,0.13543
1207,0.135943
1205,0.136439
1203,0.136902
1201,0.137513
1199,0.137871
1197,0.138423
1195,0.13898
1193,0.139622
1191,0.140136
1189,0.140717
1187,0.141335
1185,0.141953
1183,0.142587
1181,0.143179
1179,0.143814
1177,0.144428
1175,0.145087
1173,0.145709
1171,0.146248
1169,0.146959
1167,0.147572
1165,0.148217
1163,0.148888
1161,0.149536
1159,0.150139
1157,0.150857
1155,0.151501
1153,0.152207
1151,0.152916
1149,0.15366
1147,0.154384
1145,0.155177
1143,0.15606
1141,0.156878
1139,0.157784
1137,0.15873
1135,0.159721
1133,0.160643
1131,0.161638
1129,0.162665
1127,0.163762
1125,0.164855
1123,0.165999
1121,0.167065
1119,0.168247
1117,0.169295
1115,0.170394
1113,0.171471
1111,0.172496
1109,0.173517
1107,0.174589
1105,0.17554
1103,0.176451
1101,0.17737
1099,0.178094
1097,0.178919
1095,0.1796
1093,0.180239
1091,0.180834
1089,0.181316
1087,0.18184
1085,0.18218
1083,0.182605
1081,0.18307
1079,0.183346
1077,0.183698
1075,0.184069
1073,0.184466
1071,0.184901
1069,0.185277
1067,0.185792
1065,0.186325
1063,0.186878
1061,0.187473
1059,0.188064
1057,0.188798
1055,0.189424
1053,0.190143
1051,0.190868
1049,0.191633
1047,0.192417
1045,0.193113
1043,0.193833
1041,0.194504
1039,0.195035
1037,0.195631
1035,0.19613
1033,0.196634
1031,0.196868
1029,0.197137
1027,0.197316
1025,0.19743
1023,0.197443
1021,0.197405
1019,0.197262
1017,0.197106
1015,0.196751
1013,0.196479
1011,0.196243
1009,0.195778
1007,0.195435
1005,0.195034
1003,0.194505
1001,0.193941
999,0.193503
997,0.192886
995,0.192333
993,0.19169
991,0.19097
989,0.190274
987,0.189596
985,0.188916
983,0.188216
981,0.187543
979,0.186852
977,0.186158
975,0.185495
973,0.184901
971,0.1842
969,0.183559
967,0.183055
965,0.182416
963,0.181902
961,0.181328
959,0.180852
957,0.18013
955,0.179525
953,0.17894
951,0.178152
949,0.177555
947,0.176939
945,0.176181
943,0.175489
941,0.174566
939,0.17406
937,0.173158
935,0.172443
933,0.171683
931,0.170974
929,0.170085
927,0.169367
925,0.168485
923,0.167748
921,0.166911
919,0.166134
917,0.165324
915,0.164611
913,0.163693
911,0.163058
909,0.162241
907,0.161527
905,0.16065
903,0.160047
901,0.159289
899,0.153452
897,0.153895
895,0.165722
893,0.155235
891,0.15721
889,0.158867
887,0.157846
885,0.157693
883,0.15927
881,0.156359
879,0.155681
877,0.153449
875,0.156139
873,0.152705
871,0.156597
869,0.152196
867,0.151581
865,0.153832
863,0.152294
861,0.15405
859,0.151331
857,0.15196
855,0.151049
853,0.150902
851,0.149939
849,0.1504
847,0.149785
845,0.150065
843,0.150174
841,0.149685
839,0.14968
837,0.150097
835,0.149417
833,0.149857
831,0.149654
829,0.150263
827,0.149803
825,0.150376
823,0.150121
821,0.1504
819,0.150948
817,0.151598
815,0.151993
813,0.152068
811,0.152584
809,0.152996
807,0.153236
805,0.153554
803,0.154359
801,0.154307
799,0.154923
797,0.156091
795,0.15622
793,0.156194
791,0.15728
789,0.157368
787,0.15817
785,0.158013
783,0.158562
781,0.1594
779,0.159844
777,0.160644
775,0.161243
773,0.161859
771,0.162743
769,0.163304
767,0.164605
765,0.165023
763,0.166366
761,0.166817
759,0.168627
757,0.169371
755,0.170532
753,0.170989
751,0.171805
749,0.172977
747,0.17405
745,0.174182
743,0.174625
741,0.175204
739,0.175639
737,0.175887
735,0.175975
733,0.176093
731,0.176033
729,0.176524
727,0.176465
725,0.1768
723,0.176787
721,0.177419
719,0.177208
717,0.177907
715,0.178185
713,0.17868
711,0.178935
709,0.179236
707,0.179711
705,0.179786
703,0.179767
701,0.179824
699,0.179851
697,0.17966
695,0.179548
693,0.179375
691,0.17915
689,0.178728
687,0.178219
685,0.178171
683,0.177604
681,0.177259
679,0.177063
677,0.176555
675,0.176356
673,0.175967
671,0.175501
669,0.175198
667,0.174692
665,0.174363
663,0.174109
661,0.173816
659,0.173468
657,0.173193
655,0.173082
653,0.172906
651,0.172572
649,0.172245
647,0.172189
645,0.171914
643,0.171641
641,0.171062
639,0.170849
637,0.170537
635,0.170236
633,0.1701
631,0.169691
629,0.169522
627,0.169264
625,0.169248
623,0.169043
621,0.169085
619,0.168586
617,0.168805
615,0.16887
613,0.16875
611,0.168926
609,0.169191
607,0.169384
605,0.169698
603,0.170125
601,0.170628
599,0.171272
597,0.171464
595,0.172031
593,0.172574
591,0.172791
589,0.173137
587,0.173268
585,0.17366
583,0.173878
581,0.174041
579,0.174098
577,0.174456
575,0.174877
573,0.175522
571,0.176034
569,0.176662
567,0.177584
565,0.178611
563,0.179513
561,0.180275
559,0.181101
557,0.181716
555,0.182103
553,0.182123
551,0.182015
549,0.182067
547,0.181551
545,0.181351
543,0.181077
541,0.181231
539,0.18133
537,0.181676
535,0.182416
533,0.183215
531,0.183901
529,0.184634
527,0.185366
525,0.186079
523,0.186644
521,0.186805
519,0.18732
517,0.187158
515,0.187301
513,0.187241
511,0.187709
509,0.188085
507,0.188502
505,0.189433
503,0.190354
501,0.191161
499,0.192468
497,0.193621
495,0.194623
493,0.195339
491,0.195327
489,0.195167
487,0.194676
485,0.193871
483,0.193331
481,0.193082
479,0.193035
477,0.193483
475,0.194296
473,0.195237
471,0.196367
469,0.197313
467,0.198166
465,0.198292
463,0.197939
461,0.197419
459,0.196783
457,0.196129
455,0.195775
453,0.196049
451,0.196238
449,0.197012
447,0.19798
445,0.198917
443,0.199795
441,0.200561
439,0.200934
437,0.201356
435,0.201738
433,0.202444
431,0.203177
429,0.203527
427,0.204698
425,0.205417
423,0.206431
421,0.207324
419,0.207896
417,0.207654
415,0.20823
413,0.208585
411,0.208869
409,0.209754
407,0.210647
405,0.211864
403,0.213247
401,0.214674
399,0.21599
397,0.216553
395,0.216566
393,0.217456
391,0.217903
389,0.218898
387,0.219595
385,0.220981
383,0.221994
381,0.223326
379,0.225151
377,0.22665
375,0.227859
373,0.229913
371,0.2313
369,0.232712
367,0.233872
365,0.234973
363,0.235338
361,0.236913
359,0.238727
357,0.240824
355,0.243491
353,0.245593
351,0.247714
349,0.24775
347,0.248698
345,0.250825
343,0.252317
341,0.254085
339,0.256615
337,0.259341
335,0.262589
333,0.263635
331,0.266157
329,0.268619
327,0.270818
325,0.273361
323,0.276448
321,0.28007
319,0.283438
317,0.287346
315,0.290738
313,0.294571
311,0.298293
309,0.302507
307,0.306686
305,0.312408
303,0.316497
301,0.320666
299,0.326181
297,0.330692
295,0.335668
293,0.341254
291,0.346543
289,0.35186
287,0.357251
285,0.362417
283,0.366457
281,0.370882
279,0.374506
277,0.37784
275,0.379933
273,0.381724
271,0.382142
269,0.382242
267,0.381615
265,0.380416
263,0.378409
261,0.376111
259,0.373409
257,0.369643
255,0.366846
253,0.361809
251,0.357211
249,0.351818
247,0.344903
245,0.337317
243,0.328866
241,0.321409
239,0.314156
237,0.307215
235,0.30102
233,0.295466
231,0.291926
229,0.28863
227,0.287071
225,0.287553
223,0.293953
221,0.306364
219,0.33015
217,0.363962
215,0.406433
213,0.45339
211,0.497608
209,0.53472
207,0.55705
205,0.565715
203,0.561089
201,0.546162
200,0.537362
 New:Choice 1,
 New:Choice 0,
 New:Choice 1,
 New:Choice 0,
 New:2500.000,
 New:175.000,
 New:  600.000,
 New:  600.000,
 New:Reduced,
 New:   900.00,
 New:   900.00,
 New:1,
 New:1,
 New:1.000,
 New:1,
 New:External sipper,
 New:Reduced,
 New:Double fixed slit,
 New:2655.000,
 New:200.000,
 New:Choice 1,
 New:Choice 0,
 New:Choice 1,
 New:Choice 0,
 New:2500.000,
 New:175.000,
 New:  600.000,
 New:  600.000,
 New:Reduced,
 New:   900.00,
 New:   900.00,
 New:1,
 New:1,
 New:1.000,
 New:1,
 New:External sipper,
 New:Reduced,
 New:Double fixed slit,
 New:2655.000,
 New:200.000,
 New:Choice 1,
 New:Choice 0,
 New:Choice 1,
 New:Choice 0,
 New:2500.000,
 New:175.000,
 New:  600.000,
 New:  600.000,
 New:Reduced,
 New:   900.00,
 New:   900.00,
 New:1,
 New:1,
 New:1.000,
 New:1,
 New:External sipper,
 New:Reduced,
 New:Double fixed slit,
 New:2655.000,
 New:200.000,
 New:Choice 1,
 New:Choice 0,
 New:Choice 1,
 New:Choice 0,
 New:2500.000,
 New:175.000,
 New:  600.000,
 New:  600.000,
 New:Reduced,
 New:   900.00,
 New:   900.00,
 New:1,
 New:1,
 New:1.000,
 New:1,
 New:External sipper,
 New:Reduced,
 New:Double fixed slit,
 New:2655.000,
 New:200.000,
 New:Choice 1,
 New:Choice 0,
 New:Choice 1,
 New:Choice 0,
 New:2500.000,
 New:175.000,
 New:  600.000,
 New:  600.000,
 New:Reduced,
 New:   900.00,
 New:   900.00,
 New:1,
 New:1,
 New:1.000,
 New:1,
 New:External sipper,
 New:Reduced,
 New:Double fixed slit,
 New:2655.000,
 New:200.000,
 New:Choice 1,
 New:Choice 0,
 New:Choice 1,
 New:Choice 0,
 New:2500.000,
 New:175.000,
 New:  600.000,
 New:  600.000,
 New:Reduced,
 New:   900.00,
 New:   900.00,
 New:1,
 New:1,
 New:1.000,
 New:1,
 New:External sipper,
 New:Reduced,
 New:Double fixed slit,
 New:2655.000,
 New:200.000,
 New:Choice 1,
 New:Choice 0,
 New:Choice 1,
 New:Choice 0,
 New:2500.000,
 New:175.000,
 New:  600.000,
 New:  600.000,
 New:Reduced,
 New:   900.00,
 New:   900.00,
 New:1,
 New:1,
 New:1.000,
 New:1,
 New:External sipper,
 New:Reduced,
 New:Double fixed slit,
 New:2655.000,
 New:200.000,
 New:Choice 1,
 New:Choice 0,
 New:Choice 1,
 New:Choice 0,
 New:2500.000,
 New:175.000,
 New:  600.000,
 New:  600.000,
 New:Reduced,
 New:   900.00,
 New:   900.00,
 New:1,
 New:1,
 New:1.000,
 New:1,
 New:External sipper,
 New:Reduced,
 New:Double fixed slit,
 New:2655.000,
 New:200.000,
 New:Choice 1,
 New:Choice 0,
 New:Choice 1,
 New:Choice 0,
 New:2500.000,
 New:175.000,
 New:  600.000,
 New:  600.000,
 New:Reduced,
 New:   900.00,
 New:   900.00,
 New:1,
 New:1,
 New:1.000,
 New:1,
 New:External sipper,
 New:Reduced,
 New:Double fixed slit,
 New:2655.000,
 New:200.000,
 New:Choice 1,
 New:Choice 0,
 New:Choice 1,
 New:Choice 0,
 New:2500.000,
 New:175.000,
 New:  600.000,
 New:  600.000,
 New:Reduced,
 New:   900.00,
 New:   900.00,
 New:1,
 New:1,
 New:1.000,
 New:1,
 New:External sipper,
 New:Reduced,
 New:Double fixed slit,
 New:2655.000,
 New:200.000,
 New:Choice 1,
 New:Choice 0,
 New:Choice 1,
 New:Choice 0,
 New:2500.000,
 New:175.000,
 New:  600.000,
 New:  600.000,
 New:Reduced,
 New:   900.00,
 New:   900.00,
 New:1,
 New:1,
 New:1.000,
 New:1,
 New:External sipper,
 New:Reduced,
 New:Double fixed slit,
 New:2655.000,
 New:200.000,
 New:Choice 1,
 New:Choice 0,
 New:Choice 1,
 New:Choice 0,
 New:2500.000,
 New:175.000,
 New:  600.000,
 New:  600.000,
 New:Reduced,
 New:   900.00,
 New:   900.00,
 New:1,
 New:1,
 New:1.000,
 New:1,
 New:External sipper,
 New:Reduced,
 New:Double fixed slit,
 New:2655.000,
 New:200.000,
 New:Choice 1,
 New:Choice 0,
 New:Choice 1,
 New:Choice 0,
 New:2500.000,
 New:175.000,
 New:  600.000,
 New:  600.000,
 New:Reduced,
 New:   900.00,
 New:   900.00,
 New:1,
 New:1,
 New:1.000,
 New:1,
 New:External sipper,
 New:Reduced,
 New:Double fixed slit,
 New:2655.000,
 New:200.000,
 New:Choice 1,
 New:Choice 0,
 New:Choice 1,
 New:Choice 0,
 New:2500.000,
 New:175.000,
 New:  600.000,
 New:  600.000,
 New:Reduced,
 New:   900.00,
 New:   900.00,
 New:1,
 New:1,
 New:1.000,
 New:1,
 New:External sipper,
 New:Reduced,
 New:Double fixed slit,
 New:2655.000,
 New:200.000,
 New:Choice 1,
 New:Choice 0,
 New:Choice 1,
 New:Choice 0,
 New:2500.000,
 New:175.000,
 New:  600.000,
 New:  600.000,
 New:Reduced,
 New:   900.00,
 New:   900.00,
 New:1,
 New:1,
 New:1.000,
 New:1,
 New:External sipper,
 New:Reduced,
 New:Double fixed slit,
 New:2655.000,
 New:200.000,
 New:Choice 1,
 New:Choice 0,
 New:Choice 1,
 New:Choice 0,
 New:2500.000,
 New:175.000,
 New:  600.000,
 New:  600.000,
 New:Reduced,
 New:   900.00,
 New:   900.00,
 New:1,
 New:1,
 New:1.000,
 New:1,
 New:External sipper,
 New:Reduced,
 New:Double fixed slit,
 New:2655.000,
 New:200.000,
 New:Choice 1,
 New:Choice 0,
 New:Choice 1,
 New:Choice 0,
 New:2500.000,
 New:175.000,
 New:  600.000,
 New:  600.000,
 New:Reduced,
 New:   900.00,
 New:   900.00,
 New:1,
 New:1,
 New:1.000,
 New:1,
 New:External sipper,
 New:Reduced,
 New:Double fixed slit,
 New:2655.000,
 New:200.000,
 New:Choice 1,
 New:Choice 0,
 New:Choice 1,
 New:Choice 0,
 New:2500.000,
 New:175.000,
 New:  600.000,
 New:  600.000,
 New:Reduced,
 New:   900.00,
 New:   900.00,
 New:1,
 New:1,
 New:1.000,
 New:1,
 New:External sipper,
 New:Reduced,
 New:Double fixed slit,
 New:2655.000,
 New:200.000,
 New:Choice 1,
 New:Choice 0,
 New:Choice 1,
 New:Choice 0,
 New:2500.000,
 New:175.000,
 New:  600.000,
 New:  600.000,
 New:Reduced,
 New:   900.00,
 New:   900.00,
 New:1,
 New:1,
 New:1.000,
 New:1,
 New:External sipper,
 New:Reduced,
 New:Double fixed slit,
 New:2655.000,
 New:200.000,
 New:Choice 1,
 New:Choice 0,
 New:Choice 1,
 New:Choice 0,
 New:2500.000,
 New:175.000,
 New:  600.000,
 New:  600.000,
 New:Reduced,
 New:   900.00,
 New:   900.00,
 New:1,
 New:1,
 New:1.000,
 New:1,
 New:External sipper,
 New:Reduced,
 New:Double fixed slit,
 New:2655.000,
 New:200.000,
 New:Choice 1,
 New:Choice 0,
 New:Choice 1,
 New:Choice 0,
 New:2500.000,
 New:175.000,
 New:  600.000,
 New:  600.000,
 New:Reduced,
 New:   900.00,
 New:   900.00,
 New:1,
 New:1,
 New:1.000,
 New:1,
 New:External sipper,
 New:Reduced,
 New:Double fixed slit,
 New:2655.000,
 New:200.000,