File: AbsorptionAnalysis/Absorption - Correction Files/Absorption BG Susbtraction/DodecaneCryostatFilm/Dodecane_KIT_Vac_350.txt
Dodecane_KIT_Vac_350
Wavelength (nm),Abs
2655,0.075601
2653,0.0766974
2651,0.0776044
2649,0.0781935
2647,0.0773542
2645,0.0785131
2643,0.0776473
2641,0.077446
2639,0.0780737
2637,0.0781374
2635,0.075528
2633,0.0770219
2631,0.0697621
2629,0.0783716
2627,0.0769102
2625,0.0791629
2623,0.0778617
2621,0.0728951
2619,0.0786101
2617,0.0733314
2615,0.0773822
2613,0.0784729
2611,0.0775584
2609,0.0791056
2607,0.0781661
2605,0.0751864
2603,0.0775903
2601,0.0781064
2599,0.0779454
2597,0.0730697
2595,0.072431
2593,0.0789637
2591,0.077998
2589,0.0766016
2587,0.0806824
2585,0.0749782
2583,0.0797381
2581,0.0793379
2579,0.0788725
2577,0.0807746
2575,0.0796066
2573,0.0801478
2571,0.0794994
2569,0.0783539
2567,0.0792963
2565,0.0791217
2563,0.0764877
2561,0.0791761
2559,0.0803997
2557,0.0797537
2555,0.0798894
2553,0.0792677
2551,0.0795853
2549,0.0797748
2547,0.0801608
2545,0.08069
2543,0.0803538
2541,0.0799608
2539,0.0806363
2537,0.0797033
2535,0.0804351
2533,0.080028
2531,0.0799386
2529,0.0807427
2527,0.0806763
2525,0.0807972
2523,0.0809365
2521,0.0812165
2519,0.0809565
2517,0.0807841
2515,0.0810615
2513,0.0812704
2511,0.0811286
2509,0.0810949
2507,0.0809952
2505,0.0811974
2503,0.0818267
2501,0.0816684
2499,0.0815957
2497,0.0819588
2495,0.0815446
2493,0.082051
2491,0.0819949
2489,0.0819025
2487,0.082216
2485,0.0821544
2483,0.0822279
2481,0.0823371
2479,0.0821658
2477,0.0825738
2475,0.0824154
2473,0.0824406
2471,0.0826813
2469,0.0825309
2467,0.0830318
2465,0.0827428
2463,0.0828803
2461,0.083119
2459,0.0829783
2457,0.0830285
2455,0.0833055
2453,0.0832379
2451,0.083448
2449,0.083247
2447,0.0833777
2445,0.0838271
2443,0.0835936
2441,0.0837944
2439,0.0839707
2437,0.083886
2435,0.0842613
2433,0.0840993
2431,0.0842529
2429,0.0844444
2427,0.0843168
2425,0.0847229
2423,0.0847359
2421,0.0844976
2419,0.0847928
2417,0.0849347
2415,0.0849132
2413,0.0852365
2411,0.0851022
2409,0.0851946
2407,0.0855881
2405,0.0855446
2403,0.0854706
2401,0.0858495
2399,0.0857858
2397,0.0858552
2395,0.0862634
2393,0.0860654
2391,0.0864518
2389,0.0867127
2387,0.0864747
2385,0.0867166
2383,0.08693
2381,0.0869731
2379,0.087256
2377,0.0870884
2375,0.0875415
2373,0.0877349
2371,0.0876237
2369,0.0879496
2367,0.0879588
2365,0.0882996
2363,0.0882202
2361,0.0886075
2359,0.0887041
2357,0.0887737
2355,0.0891895
2353,0.0890833
2351,0.0894212
2349,0.0896267
2347,0.089823
2345,0.0898634
2343,0.0901147
2341,0.0904338
2339,0.0903998
2337,0.09071
2335,0.090708
2333,0.0910315
2331,0.0911553
2329,0.0915213
2327,0.0916555
2325,0.0915988
2323,0.0921908
2321,0.0921174
2319,0.0924511
2317,0.0926216
2315,0.093016
2313,0.0929847
2311,0.0933725
2309,0.0936301
2307,0.0938142
2305,0.0940901
2303,0.0943681
2301,0.0945954
2299,0.0947224
2297,0.0949422
2295,0.0951653
2293,0.0955381
2291,0.0957351
2289,0.096229
2287,0.0961811
2285,0.0965154
2283,0.097016
2281,0.0970495
2279,0.0972992
2277,0.0973858
2275,0.0978138
2273,0.0978931
2271,0.0982618
2269,0.0985318
2267,0.0988273
2265,0.0994152
2263,0.0993435
2261,0.0995861
2259,0.10061
2257,0.100496
2255,0.100544
2253,0.10119
2251,0.101323
2249,0.101523
2247,0.10172
2245,0.102608
2243,0.102712
2241,0.103006
2239,0.103293
2237,0.103811
2235,0.104147
2233,0.104251
2231,0.105045
2229,0.10492
2227,0.105383
2225,0.105672
2223,0.10625
2221,0.106692
2219,0.10686
2217,0.107296
2215,0.107705
2213,0.108297
2211,0.108852
2209,0.108856
2207,0.109633
2205,0.110124
2203,0.110255
2201,0.110988
2199,0.111001
2197,0.11155
2195,0.111945
2193,0.112013
2191,0.112339
2189,0.113193
2187,0.11347
2185,0.113769
2183,0.114274
2181,0.114456
2179,0.115193
2177,0.115703
2175,0.115862
2173,0.116689
2171,0.116883
2169,0.1173
2167,0.117853
2165,0.118328
2163,0.118783
2161,0.119242
2159,0.119794
2157,0.120358
2155,0.120868
2153,0.121205
2151,0.121531
2149,0.122296
2147,0.122771
2145,0.123116
2143,0.123775
2141,0.124402
2139,0.124888
2137,0.125396
2135,0.125939
2133,0.126369
2131,0.126948
2129,0.127293
2127,0.127984
2125,0.128725
2123,0.129191
2121,0.129756
2119,0.130289
2117,0.131044
2115,0.131436
2113,0.132281
2111,0.132833
2109,0.133411
2107,0.134067
2105,0.134661
2103,0.1351
2101,0.136107
2099,0.136579
2097,0.137277
2095,0.13783
2093,0.138573
2091,0.139256
2089,0.13998
2087,0.140607
2085,0.141164
2083,0.141959
2081,0.142837
2079,0.143455
2077,0.14407
2075,0.144787
2073,0.145528
2071,0.146355
2069,0.14708
2067,0.147879
2065,0.148611
2063,0.149087
2061,0.150076
2059,0.150714
2057,0.151584
2055,0.152436
2053,0.153429
2051,0.153866
2049,0.154703
2047,0.15545
2045,0.156424
2043,0.157109
2041,0.158109
2039,0.158748
2037,0.159511
2035,0.160353
2033,0.161177
2031,0.162045
2029,0.162799
2027,0.163441
2025,0.164356
2023,0.165128
2021,0.165915
2019,0.16683
2017,0.16762
2015,0.168464
2013,0.169288
2011,0.170044
2009,0.170782
2007,0.171624
2005,0.172482
2003,0.17309
2001,0.173958
1999,0.174802
1997,0.175661
1995,0.176408
1993,0.1774
1991,0.177978
1989,0.178647
1987,0.179488
1985,0.180197
1983,0.180826
1981,0.181583
1979,0.182429
1977,0.183148
1975,0.183812
1973,0.184589
1971,0.185238
1969,0.185995
1967,0.18662
1965,0.187416
1963,0.187959
1961,0.188852
1959,0.189541
1957,0.190136
1955,0.190831
1953,0.191514
1951,0.192328
1949,0.193049
1947,0.193542
1945,0.194423
1943,0.194996
1941,0.195694
1939,0.196568
1937,0.19713
1935,0.197853
1933,0.198668
1931,0.199267
1929,0.200162
1927,0.200853
1925,0.201411
1923,0.202151
1921,0.202601
1919,0.203841
1917,0.204298
1915,0.205073
1913,0.205938
1911,0.206653
1909,0.207287
1907,0.207656
1905,0.209081
1903,0.209533
1901,0.209878
1899,0.211114
1897,0.211669
1895,0.21208
1893,0.213098
1891,0.213607
1889,0.214493
1887,0.214975
1885,0.215542
1883,0.216309
1881,0.216921
1879,0.217286
1877,0.218065
1875,0.218366
1873,0.21922
1871,0.21971
1869,0.22007
1867,0.221126
1865,0.221103
1863,0.221696
1861,0.221725
1859,0.222673
1857,0.222829
1855,0.223027
1853,0.224009
1851,0.223815
1849,0.22373
1847,0.22473
1845,0.224377
1843,0.224307
1841,0.224882
1839,0.224882
1837,0.225022
1835,0.225323
1833,0.22495
1831,0.224954
1829,0.225097
1827,0.224859
1825,0.224802
1823,0.224557
1821,0.224665
1819,0.22427
1817,0.223898
1815,0.223788
1813,0.223373
1811,0.22317
1809,0.222893
1807,0.222545
1805,0.221993
1803,0.221596
1801,0.221259
1799,0.220826
1797,0.220308
1795,0.219767
1793,0.219382
1791,0.218806
1789,0.218321
1787,0.217757
1785,0.217137
1783,0.216513
1781,0.216029
1779,0.215415
1777,0.214839
1775,0.214172
1773,0.21354
1771,0.213042
1769,0.212286
1767,0.211705
1765,0.211031
1763,0.210382
1761,0.209734
1759,0.209036
1757,0.208448
1755,0.207822
1753,0.207227
1751,0.206476
1749,0.205862
1747,0.205218
1745,0.204487
1743,0.203757
1741,0.203169
1739,0.202566
1737,0.201801
1735,0.201204
1733,0.200416
1731,0.199752
1729,0.19902
1727,0.198283
1725,0.197554
1723,0.196867
1721,0.196209
1719,0.19536
1717,0.194601
1715,0.193941
1713,0.193093
1711,0.192337
1709,0.191614
1707,0.19083
1705,0.189963
1703,0.189122
1701,0.188389
1699,0.187529
1697,0.186698
1695,0.185907
1693,0.185053
1691,0.184273
1689,0.183395
1687,0.182593
1685,0.181733
1683,0.180872
1681,0.180104
1679,0.179189
1677,0.178407
1675,0.1776
1673,0.176829
1671,0.176044
1669,0.175242
1667,0.174446
1665,0.173639
1663,0.17282
1661,0.171934
1659,0.171167
1657,0.170342
1655,0.169626
1653,0.168746
1651,0.168058
1649,0.167164
1647,0.166404
1645,0.165592
1643,0.164781
1641,0.16408
1639,0.163182
1637,0.16254
1635,0.161721
1633,0.160894
1631,0.160183
1629,0.159385
1627,0.158667
1625,0.158033
1623,0.157212
1621,0.156574
1619,0.155791
1617,0.155051
1615,0.154461
1613,0.153666
1611,0.153051
1609,0.1524
1607,0.151807
1605,0.151114
1603,0.150566
1601,0.14993
1599,0.149429
1597,0.148798
1595,0.148257
1593,0.147766
1591,0.147186
1589,0.146818
1587,0.146214
1585,0.14578
1583,0.145288
1581,0.144941
1579,0.14448
1577,0.143999
1575,0.143649
1573,0.143284
1571,0.142837
1569,0.142491
1567,0.142131
1565,0.141791
1563,0.141414
1561,0.141143
1559,0.140797
1557,0.140485
1555,0.140115
1553,0.139921
1551,0.139589
1549,0.139298
1547,0.139076
1545,0.138809
1543,0.138524
1541,0.13825
1539,0.138109
1537,0.137878
1535,0.137665
1533,0.137492
1531,0.137208
1529,0.137056
1527,0.136862
1525,0.136653
1523,0.136455
1521,0.136351
1519,0.136119
1517,0.135993
1515,0.135789
1513,0.135707
1511,0.135498
1509,0.135374
1507,0.135206
1505,0.135093
1503,0.135017
1501,0.134836
1499,0.134726
1497,0.134666
1495,0.134465
1493,0.134409
1491,0.134349
1489,0.134224
1487,0.134161
1485,0.133969
1483,0.133939
1481,0.133868
1479,0.133792
1477,0.133706
1475,0.133614
1473,0.133552
1471,0.133476
1469,0.133384
1467,0.133352
1465,0.133224
1463,0.133235
1461,0.133082
1459,0.133076
1457,0.133013
1455,0.132945
1453,0.132845
1451,0.132835
1449,0.132741
1447,0.13271
1445,0.132678
1443,0.132607
1441,0.132547
1439,0.132484
1437,0.132504
1435,0.132369
1433,0.132335
1431,0.132343
1429,0.132185
1427,0.13222
1425,0.132128
1423,0.132091
1421,0.132025
1419,0.132016
1417,0.131984
1415,0.131985
1413,0.131852
1411,0.131758
1409,0.131782
1407,0.131748
1405,0.131672
1403,0.131575
1401,0.131672
1399,0.131621
1397,0.131425
1395,0.131573
1393,0.131385
1391,0.13138
1389,0.131294
1387,0.131208
1385,0.131143
1383,0.131326
1381,0.1313
1379,0.131187
1377,0.131207
1375,0.13106
1373,0.130931
1371,0.13091
1369,0.130825
1367,0.13083
1365,0.130733
1363,0.130685
1361,0.130887
1359,0.130648
1357,0.130623
1355,0.130584
1353,0.13063
1351,0.130586
1349,0.130534
1347,0.130498
1345,0.130516
1343,0.130469
1341,0.130498
1339,0.130519
1337,0.130534
1335,0.130544
1333,0.130543
1331,0.130508
1329,0.130564
1327,0.130582
1325,0.130604
1323,0.130568
1321,0.13067
1319,0.130705
1317,0.13068
1315,0.130799
1313,0.13083
1311,0.130897
1309,0.130961
1307,0.130951
1305,0.131106
1303,0.131123
1301,0.131209
1299,0.131299
1297,0.131383
1295,0.131506
1293,0.131577
1291,0.131698
1289,0.131881
1287,0.131919
1285,0.132046
1283,0.132216
1281,0.132384
1279,0.132492
1277,0.132639
1275,0.132781
1273,0.132949
1271,0.133152
1269,0.13338
1267,0.133548
1265,0.133776
1263,0.134001
1261,0.134197
1259,0.1345
1257,0.134714
1255,0.135019
1253,0.13522
1251,0.135499
1249,0.135776
1247,0.136064
1245,0.136379
1243,0.136678
1241,0.137007
1239,0.137297
1237,0.137658
1235,0.137925
1233,0.138341
1231,0.138659
1229,0.139074
1227,0.139503
1225,0.13977
1223,0.140212
1221,0.140582
1219,0.141047
1217,0.141513
1215,0.141939
1213,0.14245
1211,0.142933
1209,0.143433
1207,0.143939
1205,0.144483
1203,0.144958
1201,0.145561
1199,0.145906
1197,0.14646
1195,0.147072
1193,0.147743
1191,0.148237
1189,0.14889
1187,0.149493
1185,0.150092
1183,0.150754
1181,0.151374
1179,0.152033
1177,0.152701
1175,0.153299
1173,0.153978
1171,0.154583
1169,0.155276
1167,0.155938
1165,0.156527
1163,0.157223
1161,0.157825
1159,0.158526
1157,0.159222
1155,0.159884
1153,0.160596
1151,0.161312
1149,0.162002
1147,0.162767
1145,0.163584
1143,0.164444
1141,0.165296
1139,0.166187
1137,0.1671
1135,0.168055
1133,0.169079
1131,0.170107
1129,0.171156
1127,0.172224
1125,0.173352
1123,0.174477
1121,0.175573
1119,0.176768
1117,0.177859
1115,0.178976
1113,0.180122
1111,0.181227
1109,0.182261
1107,0.183377
1105,0.184343
1103,0.185321
1101,0.186257
1099,0.187103
1097,0.187892
1095,0.188551
1093,0.189237
1091,0.189802
1089,0.19032
1087,0.190792
1085,0.191187
1083,0.191602
1081,0.191993
1079,0.192268
1077,0.192609
1075,0.192932
1073,0.193336
1071,0.193769
1069,0.194081
1067,0.194602
1065,0.195037
1063,0.195618
1061,0.196201
1059,0.196809
1057,0.197486
1055,0.198182
1053,0.198911
1051,0.199666
1049,0.200454
1047,0.20123
1045,0.201961
1043,0.202639
1041,0.203357
1039,0.203945
1037,0.204599
1035,0.205111
1033,0.205512
1031,0.205879
1029,0.206154
1027,0.206301
1025,0.206492
1023,0.206467
1021,0.206463
1019,0.206286
1017,0.206099
1015,0.205847
1013,0.20546
1011,0.205192
1009,0.204776
1007,0.204366
1005,0.203966
1003,0.203378
1001,0.202874
999,0.202368
997,0.201754
995,0.201199
993,0.200493
991,0.199749
989,0.199045
987,0.198345
985,0.197631
983,0.196939
981,0.196164
979,0.195421
977,0.194665
975,0.194048
973,0.193415
971,0.192636
969,0.192077
967,0.191544
965,0.190945
963,0.190374
961,0.189799
959,0.189338
957,0.188624
955,0.188084
953,0.187452
951,0.186765
949,0.186124
947,0.185471
945,0.184816
943,0.183946
941,0.183095
939,0.182557
937,0.181679
935,0.180991
933,0.180193
931,0.179515
929,0.178617
927,0.177961
925,0.177121
923,0.176197
921,0.175547
919,0.174681
917,0.173821
915,0.173007
913,0.172169
911,0.171441
909,0.170658
907,0.170083
905,0.169237
903,0.168562
901,0.167741
899,0.167099
897,0.166521
895,0.168035
893,0.165648
891,0.164687
889,0.168573
887,0.167151
885,0.164616
883,0.165252
881,0.165319
879,0.161721
877,0.163137
875,0.159389
873,0.162551
871,0.164952
869,0.16139
867,0.160006
865,0.159835
863,0.158995
861,0.160158
859,0.159352
857,0.15961
855,0.158315
853,0.159144
851,0.158874
849,0.159083
847,0.159696
845,0.159134
843,0.158914
841,0.158749
839,0.157806
837,0.158189
835,0.157652
833,0.158322
831,0.158278
829,0.158605
827,0.158313
825,0.158949
823,0.159375
821,0.15952
819,0.160014
817,0.160396
815,0.160515
813,0.160627
811,0.16163
809,0.161885
807,0.162216
805,0.162756
803,0.163073
801,0.163481
799,0.164269
797,0.165015
795,0.165492
793,0.165636
791,0.166385
789,0.166657
787,0.16743
785,0.167581
783,0.167948
781,0.168675
779,0.169124
777,0.169583
775,0.170164
773,0.170996
771,0.171766
769,0.172654
767,0.173665
765,0.174318
763,0.175637
761,0.176512
759,0.17771
757,0.178663
755,0.179854
753,0.180518
751,0.181488
749,0.182648
747,0.183327
745,0.183766
743,0.184332
741,0.184788
739,0.185179
737,0.185347
735,0.185528
733,0.185364
731,0.18569
729,0.18602
727,0.186
725,0.186193
723,0.18631
721,0.186787
719,0.187023
717,0.187398
715,0.187533
713,0.188073
711,0.18863
709,0.18882
707,0.189263
705,0.189348
703,0.189486
701,0.189468
699,0.189532
697,0.189486
695,0.189309
693,0.189048
691,0.188787
689,0.188448
687,0.187993
685,0.187989
683,0.187468
681,0.186976
679,0.186761
677,0.186373
675,0.186132
673,0.185756
671,0.185222
669,0.184977
667,0.184369
665,0.184063
663,0.183806
661,0.183487
659,0.183308
657,0.18292
655,0.18279
653,0.18254
651,0.182282
649,0.181968
647,0.181837
645,0.181536
643,0.181385
641,0.18078
639,0.180672
637,0.18033
635,0.180053
633,0.179754
631,0.179613
629,0.179356
627,0.179081
625,0.178912
623,0.17878
621,0.178631
619,0.178588
617,0.178608
615,0.178738
613,0.178641
611,0.178753
609,0.178887
607,0.179174
605,0.179474
603,0.179852
601,0.180596
599,0.180966
597,0.181395
595,0.181877
593,0.182445
591,0.182747
589,0.18321
587,0.183514
585,0.183725
583,0.183855
581,0.183889
579,0.184099
577,0.184464
575,0.184815
573,0.185415
571,0.186047
569,0.186785
567,0.187812
565,0.188626
563,0.18961
561,0.190767
559,0.191463
557,0.192249
555,0.192646
553,0.192841
551,0.192631
549,0.192665
547,0.192231
545,0.191964
543,0.191618
541,0.191539
539,0.19166
537,0.192104
535,0.19288
533,0.193608
531,0.194496
529,0.195317
527,0.196072
525,0.1967
523,0.197099
521,0.197588
519,0.197961
517,0.197871
515,0.198052
513,0.198129
511,0.198356
509,0.198839
507,0.199205
505,0.200167
503,0.200875
501,0.201873
499,0.203096
497,0.204371
495,0.205405
493,0.205969
491,0.206204
489,0.206158
487,0.205568
485,0.204692
483,0.20417
481,0.203878
479,0.203759
477,0.204162
475,0.205011
473,0.206039
471,0.207278
469,0.208217
467,0.209086
465,0.209327
463,0.20891
461,0.208446
459,0.207632
457,0.207015
455,0.206897
453,0.207077
451,0.20724
449,0.208134
447,0.208958
445,0.209777
443,0.210703
441,0.211518
439,0.212086
437,0.212545
435,0.21285
433,0.213715
431,0.214095
429,0.214484
427,0.215769
425,0.216611
423,0.217855
421,0.218579
419,0.219007
417,0.219292
415,0.219513
413,0.219667
411,0.220274
409,0.221099
407,0.222421
405,0.223391
403,0.225086
401,0.22625
399,0.227753
397,0.228335
395,0.228705
393,0.229391
391,0.229913
389,0.230788
387,0.231726
385,0.232905
383,0.234133
381,0.235477
379,0.236881
377,0.238825
375,0.240388
373,0.242468
371,0.243799
369,0.24533
367,0.246008
365,0.247273
363,0.247761
361,0.248751
359,0.251087
357,0.252979
355,0.255866
353,0.2581
351,0.260144
349,0.258956
347,0.261038
345,0.262828
343,0.263871
341,0.26665
339,0.26863
337,0.271351
335,0.274026
333,0.275923
331,0.277988
329,0.280676
327,0.282516
325,0.285685
323,0.28822
321,0.29295
319,0.295603
317,0.298993
315,0.301945
313,0.30648
311,0.30984
309,0.314147
307,0.318796
305,0.323821
303,0.328079
301,0.332942
299,0.337603
297,0.34234
295,0.347456
293,0.352932
291,0.358748
289,0.363957
287,0.369534
285,0.373842
283,0.378845
281,0.382582
279,0.386576
277,0.390486
275,0.392471
273,0.394444
271,0.394789
269,0.394942
267,0.394436
265,0.393271
263,0.391518
261,0.389359
259,0.386135
257,0.382861
255,0.380033
253,0.374992
251,0.370492
249,0.36449
247,0.357799
245,0.350402
243,0.342357
241,0.335144
239,0.327259
237,0.320736
235,0.314802
233,0.309393
231,0.304913
229,0.30209
227,0.300172
225,0.300391
223,0.306326
221,0.319142
219,0.342797
217,0.37629
215,0.418538
213,0.465125
211,0.510703
209,0.546977
207,0.569351
205,0.578109
203,0.5746
201,0.558672
200,0.547544