File: AbsorptionAnalysis/Absorption - Correction Files/Absorption BG Susbtraction/DodecaneCryostatFilm/Dodecane_KIT_N2_D.txt
Dodecane_KIT_N2_D
Wavelength (nm),Abs
2655,0.0802625
2653,0.0807084
2651,0.0796918
2649,0.0811882
2647,0.0809526
2645,0.083008
2643,0.0815633
2641,0.0811565
2639,0.0810408
2637,0.0818658
2635,0.079699
2633,0.0806388
2631,0.0772683
2629,0.081334
2627,0.0806397
2625,0.0815381
2623,0.0814889
2621,0.0775363
2619,0.0822539
2617,0.0785072
2615,0.0810495
2613,0.081774
2611,0.0806384
2609,0.0831292
2607,0.081919
2605,0.081307
2603,0.0796737
2601,0.0820612
2599,0.0809575
2597,0.0798578
2595,0.0824098
2593,0.0843858
2591,0.0814207
2589,0.0818824
2587,0.0839435
2585,0.0789441
2583,0.0816102
2581,0.0823244
2579,0.0818966
2577,0.083693
2575,0.0816167
2573,0.0827965
2571,0.0811265
2569,0.082204
2567,0.0820569
2565,0.0811856
2563,0.0801672
2561,0.0824902
2559,0.0824917
2557,0.0823342
2555,0.0822373
2553,0.0815583
2551,0.0834324
2549,0.0825884
2547,0.083242
2545,0.0825712
2543,0.082811
2541,0.0825551
2539,0.0832735
2537,0.0820553
2535,0.0824708
2533,0.0825216
2531,0.0830604
2529,0.0830743
2527,0.0825273
2525,0.082989
2523,0.0830443
2521,0.0834009
2519,0.0832034
2517,0.0834791
2515,0.0835027
2513,0.0834532
2511,0.0834916
2509,0.0834123
2507,0.0834064
2505,0.083414
2503,0.0838594
2501,0.0837367
2499,0.083938
2497,0.0838558
2495,0.0837966
2493,0.0840122
2491,0.0841
2489,0.0842056
2487,0.0844126
2485,0.0843865
2483,0.084494
2481,0.0844437
2479,0.0844491
2477,0.0846669
2475,0.0846749
2473,0.0847244
2471,0.0849354
2469,0.0848548
2467,0.0851588
2465,0.0847356
2463,0.0851189
2461,0.0855088
2459,0.0853607
2457,0.085351
2455,0.0855561
2453,0.0854255
2451,0.0857084
2449,0.0856566
2447,0.0856876
2445,0.0858857
2443,0.0859632
2441,0.0860675
2439,0.0861565
2437,0.0862367
2435,0.086405
2433,0.0861715
2431,0.0863451
2429,0.086641
2427,0.0866803
2425,0.0870457
2423,0.0868338
2421,0.0869871
2419,0.0871663
2417,0.0872808
2415,0.0871349
2413,0.087455
2411,0.0873335
2409,0.0875081
2407,0.0879668
2405,0.0877725
2403,0.0880552
2401,0.0882848
2399,0.0880281
2397,0.088338
2395,0.0885613
2393,0.0885012
2391,0.0888404
2389,0.0888236
2387,0.088906
2385,0.0892206
2383,0.0893077
2381,0.0895082
2379,0.0896831
2377,0.0896492
2375,0.0899897
2373,0.0900005
2371,0.0901664
2369,0.0902401
2367,0.090406
2365,0.0907149
2363,0.0906794
2361,0.0910787
2359,0.0910892
2357,0.0915071
2355,0.0915359
2353,0.0916834
2351,0.0919754
2349,0.0919455
2347,0.0924784
2345,0.0922712
2343,0.0927732
2341,0.0928214
2339,0.0929043
2337,0.0932929
2335,0.0931218
2333,0.0936883
2331,0.0934975
2329,0.0941319
2327,0.0941428
2325,0.0944016
2323,0.0946931
2321,0.0946806
2319,0.0949044
2317,0.095196
2315,0.095549
2313,0.0955371
2311,0.0958256
2309,0.0960493
2307,0.0964792
2305,0.0964556
2303,0.0971043
2301,0.09691
2299,0.097322
2297,0.0970893
2295,0.0978563
2293,0.0976907
2291,0.0982875
2289,0.0983964
2287,0.0989566
2285,0.0988212
2283,0.0995471
2281,0.0994106
2279,0.0996935
2277,0.0996894
2275,0.100459
2273,0.100371
2271,0.101195
2269,0.101082
2267,0.101954
2265,0.101919
2263,0.102065
2261,0.102603
2259,0.102956
2257,0.103246
2255,0.102941
2253,0.10362
2251,0.1039
2249,0.104284
2247,0.104679
2245,0.104906
2243,0.105425
2241,0.105387
2239,0.106101
2237,0.106405
2235,0.106947
2233,0.107045
2231,0.107464
2229,0.107866
2227,0.107966
2225,0.108682
2223,0.108785
2221,0.109708
2219,0.109732
2217,0.109947
2215,0.110462
2213,0.110842
2211,0.111514
2209,0.111906
2207,0.111884
2205,0.112806
2203,0.112872
2201,0.113608
2199,0.113684
2197,0.114156
2195,0.114448
2193,0.115024
2191,0.115275
2189,0.115902
2187,0.116195
2185,0.11665
2183,0.117191
2181,0.117419
2179,0.117877
2177,0.118466
2175,0.11891
2173,0.119346
2171,0.119936
2169,0.120407
2167,0.12068
2165,0.121269
2163,0.121751
2161,0.122209
2159,0.122864
2157,0.123239
2155,0.123577
2153,0.124166
2151,0.124744
2149,0.125342
2147,0.125572
2145,0.126069
2143,0.126536
2141,0.127184
2139,0.127814
2137,0.128307
2135,0.128751
2133,0.129497
2131,0.13005
2129,0.130514
2127,0.131097
2125,0.131527
2123,0.132341
2121,0.132875
2119,0.133255
2117,0.13399
2115,0.134611
2113,0.13534
2111,0.135825
2109,0.136354
2107,0.137162
2105,0.137759
2103,0.138222
2101,0.139079
2099,0.139619
2097,0.140421
2095,0.14096
2093,0.14147
2091,0.142268
2089,0.143029
2087,0.143852
2085,0.144294
2083,0.145162
2081,0.145854
2079,0.146521
2077,0.147205
2075,0.147995
2073,0.148578
2071,0.149445
2069,0.150234
2067,0.15102
2065,0.151804
2063,0.152472
2061,0.153245
2059,0.154061
2057,0.154733
2055,0.15554
2053,0.156453
2051,0.157273
2049,0.157876
2047,0.1587
2045,0.159628
2043,0.160253
2041,0.161163
2039,0.161892
2037,0.162668
2035,0.163604
2033,0.164285
2031,0.165309
2029,0.166039
2027,0.166824
2025,0.167509
2023,0.168373
2021,0.169212
2019,0.170154
2017,0.170932
2015,0.171738
2013,0.172471
2011,0.173186
2009,0.174036
2007,0.17488
2005,0.17571
2003,0.176576
2001,0.177194
1999,0.178159
1997,0.178984
1995,0.179685
1993,0.180613
1991,0.181247
1989,0.182119
1987,0.182813
1985,0.183473
1983,0.18419
1981,0.184979
1979,0.185769
1977,0.18646
1975,0.187233
1973,0.18801
1971,0.188706
1969,0.189408
1967,0.190016
1965,0.190793
1963,0.19158
1961,0.192177
1959,0.192887
1957,0.193623
1955,0.194161
1953,0.194928
1951,0.195651
1949,0.196465
1947,0.196979
1945,0.197904
1943,0.198432
1941,0.199102
1939,0.199897
1937,0.200699
1935,0.201325
1933,0.202155
1931,0.202771
1929,0.203422
1927,0.204145
1925,0.20473
1923,0.205672
1921,0.206341
1919,0.207254
1917,0.207729
1915,0.208291
1913,0.209154
1911,0.210024
1909,0.210549
1907,0.211079
1905,0.212296
1903,0.213001
1901,0.213084
1899,0.214396
1897,0.215141
1895,0.215512
1893,0.216379
1891,0.216935
1889,0.217991
1887,0.218453
1885,0.218972
1883,0.219762
1881,0.22023
1879,0.220736
1877,0.221326
1875,0.221848
1873,0.222667
1871,0.223109
1869,0.22354
1867,0.224521
1865,0.224438
1863,0.225101
1861,0.225199
1859,0.2261
1857,0.226208
1855,0.226253
1853,0.227191
1851,0.227012
1849,0.22705
1847,0.228096
1845,0.227745
1843,0.227559
1841,0.228182
1839,0.228191
1837,0.228338
1835,0.228504
1833,0.228269
1831,0.228339
1829,0.228353
1827,0.227978
1825,0.228137
1823,0.22784
1821,0.2278
1819,0.227425
1817,0.227187
1815,0.227036
1813,0.226627
1811,0.226335
1809,0.225959
1807,0.22564
1805,0.225116
1803,0.224684
1801,0.224302
1799,0.223833
1797,0.223361
1795,0.222773
1793,0.222256
1791,0.221854
1789,0.221258
1787,0.220659
1785,0.220147
1783,0.219455
1781,0.218914
1779,0.218244
1777,0.217664
1775,0.216999
1773,0.216325
1771,0.215744
1769,0.215
1767,0.214499
1765,0.213732
1763,0.213029
1761,0.212416
1759,0.211795
1757,0.211153
1755,0.210518
1753,0.209886
1751,0.209172
1749,0.208472
1747,0.207807
1745,0.207143
1743,0.206379
1741,0.205785
1739,0.205148
1737,0.204454
1735,0.203745
1733,0.202848
1731,0.202312
1729,0.201604
1727,0.200848
1725,0.200082
1723,0.199435
1721,0.198747
1719,0.197809
1717,0.197056
1715,0.196336
1713,0.195623
1711,0.194717
1709,0.193989
1707,0.193251
1705,0.192438
1703,0.191561
1701,0.19076
1699,0.189983
1697,0.189048
1695,0.188278
1693,0.187456
1691,0.186656
1689,0.185811
1687,0.184958
1685,0.184119
1683,0.183263
1681,0.182466
1679,0.181583
1677,0.180733
1675,0.179961
1673,0.17915
1671,0.178335
1669,0.177601
1667,0.176757
1665,0.175913
1663,0.175087
1661,0.174255
1659,0.173421
1657,0.172677
1655,0.171832
1653,0.171047
1651,0.170278
1649,0.169476
1647,0.168689
1645,0.167933
1643,0.16706
1641,0.16631
1639,0.165489
1637,0.164668
1635,0.16403
1633,0.163197
1631,0.162367
1629,0.161666
1627,0.160937
1625,0.160295
1623,0.159442
1621,0.158775
1619,0.158089
1617,0.15731
1615,0.156652
1613,0.155912
1611,0.155368
1609,0.154714
1607,0.154047
1605,0.153392
1603,0.152845
1601,0.152223
1599,0.151712
1597,0.1511
1595,0.150568
1593,0.150098
1591,0.149539
1589,0.149129
1587,0.148552
1585,0.148121
1583,0.147594
1581,0.147265
1579,0.146825
1577,0.146376
1575,0.146012
1573,0.145588
1571,0.145208
1569,0.144907
1567,0.144474
1565,0.14414
1563,0.143856
1561,0.143514
1559,0.143202
1557,0.142876
1555,0.142549
1553,0.142304
1551,0.142021
1549,0.141721
1547,0.141496
1545,0.141256
1543,0.140964
1541,0.140701
1539,0.14052
1537,0.140263
1535,0.140079
1533,0.139929
1531,0.139589
1529,0.139465
1527,0.139278
1525,0.139074
1523,0.138949
1521,0.138735
1519,0.138611
1517,0.13844
1515,0.138257
1513,0.138134
1511,0.137972
1509,0.137867
1507,0.137707
1505,0.137617
1503,0.137537
1501,0.137336
1499,0.137264
1497,0.137157
1495,0.136987
1493,0.136949
1491,0.136803
1489,0.136691
1487,0.136675
1485,0.136492
1483,0.136422
1481,0.136386
1479,0.136284
1477,0.136229
1475,0.136158
1473,0.13606
1471,0.136008
1469,0.135939
1467,0.135891
1465,0.13582
1463,0.135745
1461,0.135635
1459,0.1356114
1457,0.1356
1455,0.135493
1453,0.135387
1451,0.135414
1449,0.135331
1447,0.135267
1445,0.135248
1443,0.135146
1441,0.135134
1439,0.135048
1437,0.135024
1435,0.134938
1433,0.134894
1431,0.134891
1429,0.134822
1427,0.134766
1425,0.134661
1423,0.134718
1421,0.134614
1419,0.134565
1417,0.134572
1415,0.134471
1413,0.134463
1411,0.134286
1409,0.134383
1407,0.134327
1405,0.134309
1403,0.134167
1401,0.13427
1399,0.134181
1397,0.134061
1395,0.134187
1393,0.134021
1391,0.134033
1389,0.133998
1387,0.134028
1385,0.133901
1383,0.134037
1381,0.133955
1379,0.133778
1377,0.133782
1375,0.133599
1373,0.13348
1371,0.133586
1369,0.133533
1367,0.133515
1365,0.133473
1363,0.133347
1361,0.133501
1359,0.13336
1357,0.13328
1355,0.133272
1353,0.133279
1351,0.133242
1349,0.133175
1347,0.133222
1345,0.133201
1343,0.133103
1341,0.133189
1339,0.133192
1337,0.133215
1335,0.133214
1333,0.133204
1331,0.133245
1329,0.133303
1327,0.133285
1325,0.133328
1323,0.133292
1321,0.133364
1319,0.133399
1317,0.133405
1315,0.133478
1313,0.133563
1311,0.133627
1309,0.13372
1307,0.133694
1305,0.133839
1303,0.133899
1301,0.133966
1299,0.134049
1297,0.134138
1295,0.134284
1293,0.134342
1291,0.134428
1289,0.134645
1287,0.134691
1285,0.13485
1283,0.134993
1281,0.135162
1279,0.135318
1277,0.135475
1275,0.135595
1273,0.135804
1271,0.136006
1269,0.136227
1267,0.136436
1265,0.136608
1263,0.136917
1261,0.137082
1259,0.137352
1257,0.137573
1255,0.137901
1253,0.138086
1251,0.138408
1249,0.138699
1247,0.138934
1245,0.139276
1243,0.139601
1241,0.139874
1239,0.140246
1237,0.140546
1235,0.140872
1233,0.141286
1231,0.1416042
1229,0.141987
1227,0.142439
1225,0.142747
1223,0.143206
1221,0.143595
1219,0.144025
1217,0.144491
1215,0.144966
1213,0.14545
1211,0.145958
1209,0.146474
1207,0.146937
1205,0.147508
1203,0.148002
1201,0.148635
1199,0.148965
1197,0.149481
1195,0.150103
1193,0.150765
1191,0.151283
1189,0.151938
1187,0.152583
1185,0.153185
1183,0.153845
1181,0.154472
1179,0.155119
1177,0.155769
1175,0.156425
1173,0.15707
1171,0.157673
1169,0.158365
1167,0.159005
1165,0.159623
1163,0.160325
1161,0.160954
1159,0.161671
1157,0.162355
1155,0.162966
1153,0.163709
1151,0.164444
1149,0.165174
1147,0.165999
1145,0.166694
1143,0.167601
1141,0.168502
1139,0.169364
1137,0.170265
1135,0.171277
1133,0.172246
1131,0.173327
1129,0.174356
1127,0.17544
1125,0.176595
1123,0.177683
1121,0.178799
1119,0.180008
1117,0.181106
1115,0.182212
1113,0.183397
1111,0.184455
1109,0.185514
1107,0.186626
1105,0.18763
1103,0.188559
1101,0.189519
1099,0.190327
1097,0.191138
1095,0.191838
1093,0.192449
1091,0.193058
1089,0.193572
1087,0.194039
1085,0.194479
1083,0.194827
1081,0.195201
1079,0.195515
1077,0.195836
1075,0.196188
1073,0.196565
1071,0.19696
1069,0.197374
1067,0.197808
1065,0.198333
1063,0.198891
1061,0.199473
1059,0.200068
1057,0.200741
1055,0.201453
1053,0.202176
1051,0.202965
1049,0.20371
1047,0.204517
1045,0.205245
1043,0.205947
1041,0.206663
1039,0.207235
1037,0.207834
1035,0.208349
1033,0.208817
1031,0.20915
1029,0.209359
1027,0.209566
1025,0.209706
1023,0.209672
1021,0.209587
1019,0.209485
1017,0.209227
1015,0.209038
1013,0.208646
1011,0.208382
1009,0.20793
1007,0.207521
1005,0.207052
1003,0.206583
1001,0.206012
999,0.205501
997,0.204854
995,0.204223
993,0.203514
991,0.20279
989,0.20206
987,0.201348
985,0.200609
983,0.199842
981,0.199089
979,0.198401
977,0.197667
975,0.197076
973,0.19639
971,0.195731
969,0.19514
967,0.194536
965,0.193882
963,0.193429
961,0.192782
959,0.192294
957,0.191628
955,0.191089
953,0.190462
951,0.189801
949,0.18907
947,0.188348
945,0.187774
943,0.186865
941,0.186155
939,0.185441
937,0.184615
935,0.183794
933,0.183202
931,0.182469
929,0.181692
927,0.180829
925,0.179968
923,0.179173
921,0.178414
919,0.177601
917,0.176676
915,0.176029
913,0.175186
911,0.174251
909,0.173699
907,0.173168
905,0.17216
903,0.171405
901,0.170874
899,0.167445
897,0.166584
895,0.172014
893,0.164838
891,0.164652
889,0.170295
887,0.168543
885,0.165081
883,0.173043
881,0.165679
879,0.163694
877,0.165484
875,0.162496
873,0.164727
871,0.166345
869,0.161768
867,0.162694
865,0.163882
863,0.163446
861,0.164506
859,0.164191
857,0.163938
855,0.161769
853,0.16279
851,0.162871
849,0.16303
847,0.163468
845,0.162983
843,0.163978
841,0.163161
839,0.162412
837,0.162636
835,0.162178
833,0.163398
831,0.162439
829,0.1632
827,0.162989
825,0.163294
823,0.163988
821,0.163648
819,0.163947
817,0.164499
815,0.164933
813,0.164519
811,0.165666
809,0.166118
807,0.166364
805,0.167086
803,0.167431
801,0.168005
799,0.168804
797,0.169039
795,0.169639
793,0.16975
791,0.170412
789,0.17089
787,0.171653
785,0.171661
783,0.171972
781,0.172886
779,0.173109
777,0.173825
775,0.174372
773,0.175332
771,0.176024
769,0.176851
767,0.177918
765,0.178393
763,0.179799
761,0.180693
759,0.18193
757,0.182836
755,0.184259
753,0.18495
751,0.186033
749,0.186595
747,0.187463
745,0.187971
743,0.188467
741,0.188871
739,0.189341
737,0.189816
735,0.189756
733,0.189621
731,0.190071
729,0.190253
727,0.19009
725,0.190453
723,0.190588
721,0.19106
719,0.191274
717,0.191526
715,0.192037
713,0.192441
711,0.192988
709,0.193121
707,0.193435
705,0.193679
703,0.193634
701,0.193825
699,0.19372
697,0.193617
695,0.193585
693,0.193242
691,0.193049
689,0.192578
687,0.192172
685,0.192017
683,0.191772
681,0.191253
679,0.191027
677,0.190688
675,0.190174
673,0.189927
671,0.189488
669,0.189092
667,0.188622
665,0.188205
663,0.188114
661,0.187768
659,0.18738
657,0.187313
655,0.187149
653,0.186841
651,0.186533
649,0.186332
647,0.186112
645,0.185936
643,0.185821
641,0.185217
639,0.18506
637,0.184887
635,0.184433
633,0.184224
631,0.183933
629,0.183845
627,0.183537
625,0.183481
623,0.183333
621,0.183277
619,0.18286
617,0.182993
615,0.183136
613,0.182994
611,0.183253
609,0.183431
607,0.183452
605,0.184034
603,0.184379
601,0.184991
599,0.185482
597,0.186002
595,0.186409
593,0.186944
591,0.187359
589,0.187682
587,0.187948
585,0.188282
583,0.188435
581,0.188605
579,0.188599
577,0.188853
575,0.189305
573,0.189886
571,0.190451
569,0.191312
567,0.192219
565,0.193326
563,0.194271
561,0.195122
559,0.196252
557,0.196985
555,0.197295
553,0.197446
551,0.197277
549,0.197104
547,0.196666
545,0.196321
543,0.196194
541,0.196219
539,0.196239
537,0.196623
535,0.197308
533,0.198105
531,0.199138
529,0.199723
527,0.200672
525,0.201302
523,0.201655
521,0.202001
519,0.202485
517,0.202215
515,0.202425
513,0.202472
511,0.202755
509,0.203312
507,0.20365
505,0.204392
503,0.205316
501,0.206264
499,0.207729
497,0.20863
495,0.209812
493,0.210596
491,0.210519
489,0.210294
487,0.209945
485,0.20878
483,0.208427
481,0.208046
479,0.208017
477,0.208411
475,0.209263
473,0.210254
471,0.211575
469,0.212455
467,0.213187
465,0.213333
463,0.213108
461,0.212678
459,0.211885
457,0.211195
455,0.211235
453,0.211266
451,0.211894
449,0.212478
447,0.213265
445,0.214226
443,0.215294
441,0.215657
439,0.216549
437,0.216932
435,0.2174
433,0.217853
431,0.218255
429,0.219021
427,0.220213
425,0.220759
423,0.222085
421,0.223003
419,0.223524
417,0.22368
415,0.223591
413,0.224198
411,0.22469
409,0.225778
407,0.226708
405,0.22795
403,0.229543
401,0.230638
399,0.23209
397,0.233002
395,0.233127
393,0.233756
391,0.234466
389,0.235235
387,0.236444
385,0.236982
383,0.238528
381,0.240279
379,0.241542
377,0.243545
375,0.244861
373,0.24726
371,0.248213
369,0.249704
367,0.250838
365,0.251831
363,0.252677
361,0.254017
359,0.255996
357,0.257725
355,0.260419
353,0.262105
351,0.264652
349,0.264791
347,0.265538
345,0.267155
343,0.268757
341,0.271077
339,0.273459
337,0.276091
335,0.278985
333,0.280858
331,0.28303
329,0.285377
327,0.287216
325,0.290274
323,0.293216
321,0.29761
319,0.30054
317,0.303504
315,0.306749
313,0.311637
311,0.315004
309,0.318975
307,0.323516
305,0.328676
303,0.333088
301,0.337713
299,0.342606
297,0.34767
295,0.352569
293,0.358027
291,0.363202
289,0.368602
287,0.374381
285,0.379267
283,0.383299
281,0.388418
279,0.39154
277,0.395701
275,0.397767
273,0.399479
271,0.400883
269,0.400491
267,0.39977
265,0.398641
263,0.396606
261,0.394385
259,0.391471
257,0.388716
255,0.3854
253,0.38042
251,0.37534
249,0.370071
247,0.363726
245,0.35628
243,0.34797
241,0.340579
239,0.33334
237,0.326659
235,0.321016
233,0.315893
231,0.312099
229,0.308903
227,0.307422
225,0.308916
223,0.31479
221,0.328245
219,0.352444
217,0.386018
215,0.427711
213,0.473195
211,0.517021
209,0.552994
207,0.574583
205,0.584149
203,0.578546
201,0.565314
200,0.554774