File: Absorption_Analysis/Absorption - Correction Files/Absorption BG Susbtraction/Polymer_Solution.txt
AGSD05cBPY3,,
Wavelength (nm),Abs,
1600,0.000911832,
1599,0.000937306,
1598,0.000940315,
1597,0.000903739,
1596,0.00091165,
1595,0.00091868,
1594,0.000897358,
1593,0.000915697,
1592,0.00097648,
1591,0.000995472,
1590,0.000973263,
1589,0.000993915,
1588,0.000996977,
1587,0.00101273,
1586,0.00102272,
1585,0.00100061,
1584,0.00105798,
1583,0.00104993,
1582,0.0010681,
1581,0.00105341,
1580,0.00106159,
1579,0.00110077,
1578,0.0011044,
1577,0.00111528,
1576,0.00112083,
1575,0.00109125,
1574,0.00110622,
1573,0.00111642,
1572,0.00112703,
1571,0.00112086,
1570,0.00109709,
1569,0.00109171,
1568,0.00113682,
1567,0.00110264,
1566,0.00109249,
1565,0.00113062,
1564,0.00113708,
1563,0.00112532,
1562,0.00116654,
1561,0.00114647,
1560,0.00114627,
1559,0.00113121,
1558,0.00113552,
1557,0.00114562,
1556,0.00114897,
1555,0.00112545,
1554,0.00114845,
1553,0.00116044,
1552,0.00121526,
1551,0.00121573,
1550,0.00117383,
1549,0.00121183,
1548,0.00121225,
1547,0.0012231,
1546,0.00124205,
1545,0.00126593,
1544,0.00127027,
1543,0.0012603,
1542,0.00125095,
1541,0.00129177,
1540,0.00127876,
1539,0.00126253,
1538,0.00127601,
1537,0.00126336,
1536,0.00126331,
1535,0.00126388,
1534,0.00125929,
1533,0.00124805,
1532,0.00124628,
1531,0.00122502,
1530,0.00123052,
1529,0.00121604,
1528,0.00121248,
1527,0.00120498,
1526,0.00122004,
1525,0.00118966,
1524,0.00119961,
1523,0.00121336,
1522,0.00117983,
1521,0.00117923,
1520,0.00120516,
1519,0.00118058,
1518,0.00120275,
1517,0.00120389,
1516,0.0011832,
1515,0.0011717,
1514,0.00115073,
1513,0.00114352,
1512,0.00114736,
1511,0.0011491,
1510,0.00111024,
1509,0.00115647,
1508,0.00115532,
1507,0.00114102,
1506,0.00112553,
1505,0.0011145,
1504,0.00115125,
1503,0.00112607,
1502,0.00112657,
1501,0.00115081,
1500,0.00116563,
1499,0.00120132,
1498,0.00120013,
1497,0.00118787,
1496,0.00118922,
1495,0.00120238,
1494,0.00120282,
1493,0.00121336,
1492,0.00123148,
1491,0.00121339,
1490,0.00121227,
1489,0.00125241,
1488,0.00127834,
1487,0.00125404,
1486,0.00122289,
1485,0.00123276,
1484,0.00121243,
1483,0.00126817,
1482,0.00130075,
1481,0.00133411,
1480,0.00133801,
1479,0.00135953,
1478,0.00134369,
1477,0.00133035,
1476,0.00130869,
1475,0.00131451,
1474,0.00132258,
1473,0.0012928,
1472,0.00131635,
1471,0.00128823,
1470,0.00126687,
1469,0.00123566,
1468,0.00124524,
1467,0.00125199,
1466,0.00125604,
1465,0.0012143,
1464,0.00119563,
1463,0.00120103,
1462,0.00120654,
1461,0.0012367,
1460,0.0012759,
1459,0.00123738,
1458,0.00121435,
1457,0.00121907,
1456,0.00120482,
1455,0.00117736,
1454,0.00119187,
1453,0.00121279,
1452,0.00123761,
1451,0.00122414,
1450,0.00122406,
1449,0.00124602,
1448,0.00127003,
1447,0.00128644,
1446,0.00127715,
1445,0.00133484,
1444,0.00128198,
1443,0.00125685,
1442,0.00130763,
1441,0.00134603,
1440,0.00136252,
1439,0.00134593,
1438,0.00137202,
1437,0.0013721,
1436,0.00138774,
1435,0.0014169,
1434,0.00143435,
1433,0.00140391,
1432,0.00143217,
1431,0.00136922,
1430,0.00148064,
1429,0.00151534,
1428,0.00153363,
1427,0.00149905,
1426,0.00154132,
1425,0.00164345,
1424,0.00173094,
1423,0.00175873,
1422,0.00182922,
1421,0.00193511,
1420,0.00202348,
1419,0.00208865,
1418,0.00225284,
1417,0.00237505,
1416,0.0024848,
1415,0.00260374,
1414,0.00273787,
1413,0.00287426,
1412,0.00296957,
1411,0.00309777,
1410,0.00320621,
1409,0.00332345,
1408,0.00343764,
1407,0.00351837,
1406,0.0036057,
1405,0.00365156,
1404,0.00368717,
1403,0.00372215,
1402,0.00372518,
1401,0.0037073,
1400,0.00370672,
1399,0.00362287,
1398,0.00357281,
1397,0.0035245,
1396,0.00344267,
1395,0.00337792,
1394,0.00331085,
1393,0.00322405,
1392,0.00312992,
1391,0.00305958,
1390,0.00295039,
1389,0.00286413,
1388,0.00281327,
1387,0.00263798,
1386,0.00251929,
1385,0.00232401,
1384,0.00223548,
1383,0.00220876,
1382,0.00220548,
1381,0.00225359,
1380,0.00233583,
1379,0.00242435,
1378,0.00248766,
1377,0.0024408,
1376,0.00231816,
1375,0.00221631,
1374,0.00214817,
1373,0.0021432,
1372,0.00214044,
1371,0.00199128,
1370,0.00179956,
1369,0.00172767,
1368,0.00173612,
1367,0.00165948,
1366,0.00152892,
1365,0.00147941,
1364,0.00152942,
1363,0.00167325,
1362,0.00180567,
1361,0.00188626,
1360,0.00189364,
1359,0.00185665,
1358,0.00181214,
1357,0.00173141,
1356,0.001839,
1355,0.00177245,
1354,0.00175699,
1353,0.00169799,
1352,0.00172619,
1351,0.00174495,
1350,0.0017888,
1349,0.00181565,
1348,0.00181266,
1347,0.00186806,
1346,0.001912,
1345,0.00196268,
1344,0.00197552,
1343,0.00204033,
1342,0.00201458,
1341,0.00203424,
1340,0.00207932,
1339,0.00211737,
1338,0.0021071,
1337,0.00207583,
1336,0.00201851,
1335,0.00204836,
1334,0.00206834,
1333,0.00206803,
1332,0.00205266,
1331,0.00202647,
1330,0.00195995,
1329,0.00190503,
1328,0.00189167,
1327,0.00190591,
1326,0.00190987,
1325,0.0019082,
1324,0.00184144,
1323,0.00178007,
1322,0.00178904,
1321,0.00172907,
1320,0.00173479,
1319,0.00175132,
1318,0.0017364,
1317,0.00172047,
1316,0.0017185,
1315,0.00169482,
1314,0.00164108,
1313,0.00163394,
1312,0.00164441,
1311,0.00167185,
1310,0.00168575,
1309,0.00170815,
1308,0.00171907,
1307,0.00170724,
1306,0.00170987,
1305,0.00169789,
1304,0.00171166,
1303,0.00172354,
1302,0.00174877,
1301,0.00175348,
1300,0.00179582,
1299,0.00181225,
1298,0.00181344,
1297,0.00187981,
1296,0.00187552,
1295,0.00192242,
1294,0.00196252,
1293,0.00198548,
1292,0.00198603,
1291,0.00203575,
1290,0.00203877,
1289,0.00205856,
1288,0.00209274,
1287,0.00208397,
1286,0.0021213,
1285,0.00215124,
1284,0.00216859,
1283,0.00218191,
1282,0.00225279,
1281,0.00226478,
1280,0.00230413,
1279,0.00233359,
1278,0.00234535,
1277,0.00234527,
1276,0.00235529,
1275,0.00240035,
1274,0.00241237,
1273,0.00241659,
1272,0.00244827,
1271,0.0025465,
1270,0.00262775,
1269,0.00272388,
1268,0.0027899,
1267,0.00293235,
1266,0.00304352,
1265,0.00320736,
1264,0.00332191,
1263,0.00347727,
1262,0.00360507,
1261,0.00371289,
1260,0.00380689,
1259,0.00390647,
1258,0.00395691,
1257,0.00398259,
1256,0.00401969,
1255,0.00400558,
1254,0.00396417,
1253,0.00392243,
1252,0.00386531,
1251,0.00376124,
1250,0.00367712,
1249,0.00354215,
1248,0.00345467,
1247,0.00334053,
1246,0.00325422,
1245,0.00315257,
1244,0.00305955,
1243,0.00296576,
1242,0.00290762,
1241,0.00282478,
1240,0.00276747,
1239,0.00271188,
1238,0.00266932,
1237,0.00266278,
1236,0.00260593,
1235,0.0025421,
1234,0.00251281,
1233,0.00245772,
1232,0.00244718,
1231,0.00242677,
1230,0.00242357,
1229,0.00238936,
1228,0.00243145,
1227,0.0024426,
1226,0.00245749,
1225,0.00245673,
1224,0.00247631,
1223,0.00252398,
1222,0.00249094,
1221,0.00243289,
1220,0.00243158,
1219,0.00246639,
1218,0.00245915,
1217,0.00248409,
1216,0.00243898,
1215,0.00242778,
1214,0.00242739,
1213,0.00248342,
1212,0.00248659,
1211,0.00247545,
1210,0.00248222,
1209,0.00250815,
1208,0.00256879,
1207,0.00255262,
1206,0.00257684,
1205,0.00258559,
1204,0.0026252,
1203,0.00264048,
1202,0.00268711,
1201,0.00277945,
1200,0.00276181,
1199,0.00283557,
1198,0.00293548,
1197,0.0031483,
1196,0.0033655,
1195,0.00358156,
1194,0.00382161,
1193,0.00408485,
1192,0.00438888,
1191,0.00467429,
1190,0.0050278,
1189,0.00538884,
1188,0.00566675,
1187,0.00593218,
1186,0.00617376,
1185,0.00635967,
1184,0.00654077,
1183,0.00669037,
1182,0.00682499,
1181,0.00685399,
1180,0.00687674,
1179,0.00685036,
1178,0.00671969,
1177,0.0067012,
1176,0.00662879,
1175,0.00660755,
1174,0.00655086,
1173,0.00640908,
1172,0.00626784,
1171,0.00604378,
1170,0.00588852,
1169,0.00580089,
1168,0.00578098,
1167,0.0058112,
1166,0.005942,
1165,0.00598882,
1164,0.00605092,
1163,0.00594142,
1162,0.00578583,
1161,0.00560809,
1160,0.00554036,
1159,0.00555546,
1158,0.00558572,
1157,0.0056721,
1156,0.00574119,
1155,0.00588773,
1154,0.00595604,
1153,0.00615971,
1152,0.00635081,
1151,0.00635315,
1150,0.00642663,
1149,0.00630382,
1148,0.00615483,
1147,0.00619001,
1146,0.00629374,
1145,0.00632158,
1144,0.00633571,
1143,0.00601682,
1142,0.00559432,
1141,0.00518771,
1140,0.0047904,
1139,0.00433099,
1138,0.00418656,
1137,0.0040222,
1136,0.00425711,
1135,0.00418771,
1134,0.00407892,
1133,0.00395636,
1132,0.00408274,
1131,0.00439573,
1130,0.00464022,
1129,0.00453819,
1128,0.00441903,
1127,0.00447851,
1126,0.00441906,
1125,0.00462282,
1124,0.00459847,
1123,0.00441284,
1122,0.00443917,
1121,0.00443776,
1120,0.0044716,
1119,0.00434666,
1118,0.00419859,
1117,0.00415648,
1116,0.00420557,
1115,0.00412515,
1114,0.00407343,
1113,0.00397812,
1112,0.00403646,
1111,0.00403231,
1110,0.0039538,
1109,0.00394364,
1108,0.00394528,
1107,0.00394314,
1106,0.00391303,
1105,0.0039287,
1104,0.00391425,
1103,0.00390676,
1102,0.00396958,
1101,0.00398376,
1100,0.00395566,
1099,0.0039724,
1098,0.00407001,
1097,0.00411556,
1096,0.0040952,
1095,0.00412421,
1094,0.00426043,
1093,0.00427549,
1092,0.00421043,
1091,0.00441061,
1090,0.00452122,
1089,0.00443922,
1088,0.0045214,
1087,0.00477828,
1086,0.00478242,
1085,0.00470407,
1084,0.00497444,
1083,0.00512497,
1082,0.00504009,
1081,0.00527453,
1080,0.00559712,
1079,0.00545075,
1078,0.00560365,
1077,0.00600226,
1076,0.00600966,
1075,0.00605016,
1074,0.00645595,
1073,0.00654366,
1072,0.00662027,
1071,0.00701749,
1070,0.00719458,
1069,0.00731611,
1068,0.00773765,
1067,0.00791617,
1066,0.00814938,
1065,0.00854636,
1064,0.00876702,
1063,0.00909558,
1062,0.00942406,
1061,0.00973453,
1060,0.0100371,
1059,0.010401,
1058,0.010776,
1057,0.0111208,
1056,0.0115127,
1055,0.011904,
1054,0.0122543,
1053,0.0126673,
1052,0.0131485,
1051,0.0135376,
1050,0.0141461,
1049,0.0146511,
1048,0.015237,
1047,0.0160555,
1046,0.0166457,
1045,0.0176551,
1044,0.0185038,
1043,0.0194566,
1042,0.020694,
1041,0.0216098,
1040,0.0230885,
1039,0.0241901,
1038,0.0254974,
1037,0.0269089,
1036,0.0280818,
1035,0.0295717,
1034,0.0306933,
1033,0.0322307,
1032,0.0332971,
1031,0.0347406,
1030,0.0360457,
1029,0.037298,
1028,0.0389355,
1027,0.0401978,
1026,0.0421587,
1025,0.0439072,
1024,0.046221,
1023,0.0487019,
1022,0.0517943,
1021,0.0553761,
1020,0.0597311,
1019,0.0649126,
1018,0.0712635,
1017,0.0788455,
1016,0.0877518,
1015,0.0986591,
1014,0.111512,
1013,0.126859,
1012,0.144851,
1011,0.166274,
1010,0.191028,
1009,0.218867,
1008,0.250974,
1007,0.285756,
1006,0.323468,
1005,0.364639,
1004,0.406079,
1003,0.446904,
1002,0.487611,
1001,0.525103,
1000,0.558116,
999,0.586287,
998,0.607295,
997,0.620308,
996,0.624293,
995,0.619642,
994,0.605909,
993,0.584994,
992,0.556328,
991,0.523862,
990,0.488176,
989,0.450413,
988,0.413263,
987,0.377083,
986,0.342271,
985,0.309516,
984,0.280275,
983,0.25338,
982,0.229046,
981,0.207474,
980,0.188062,
979,0.170756,
978,0.155399,
977,0.142131,
976,0.129952,
975,0.119203,
974,0.10997,
973,0.101128,
972,0.0934917,
971,0.0868144,
970,0.0806136,
969,0.0752069,
968,0.0702391,
967,0.065806,
966,0.0618224,
965,0.0581504,
964,0.0548841,
963,0.051874,
962,0.0491672,
961,0.0467583,
960,0.0444088,
959,0.0424464,
958,0.0406149,
957,0.0388389,
956,0.0374504,
955,0.0360443,
954,0.03479,
953,0.0338332,
952,0.0329275,
951,0.0320274,
950,0.0314205,
949,0.030879,
948,0.0303454,
947,0.0299773,
946,0.029859,
945,0.0296019,
944,0.029444,
943,0.0295542,
942,0.0296686,
941,0.0297308,
940,0.0299136,
939,0.0302863,
938,0.0305552,
937,0.0307985,
936,0.0310994,
935,0.0315486,
934,0.0318253,
933,0.0320315,
932,0.0321823,
931,0.0322424,
930,0.0321823,
929,0.0319668,
928,0.0316224,
927,0.0312259,
926,0.0307884,
925,0.0301771,
924,0.0295351,
923,0.0289151,
922,0.0282952,
921,0.0276074,
920,0.0269388,
919,0.0262643,
918,0.0256769,
917,0.025037,
916,0.02440398,
915,0.0237859,
914,0.0232559,
913,0.0227409,
912,0.0222713,
911,0.0218155,
910,0.0214192,
909,0.0210673,
908,0.0207368,
907,0.0204903,
906,0.0202577,
905,0.0200527,
904,0.0198682,
903,0.0197136,
902,0.0195766,
901,0.0195153,
900,0.0194266,
899,0.0193756,
898,0.0193002,
897,0.0192928,
896,0.0192791,
895,0.0192496,
894,0.0192454,
893,0.0192919,
892,0.0193493,
891,0.0194206,
890,0.0195591,
889,0.0197067,
888,0.0198868,
887,0.0200932,
886,0.0203521,
885,0.0206786,
884,0.0209903,
883,0.0213715,
882,0.021821,
881,0.0223343,
880,0.0229509,
879,0.0236147,
878,0.0244706,
877,0.0254416,
876,0.0265282,
875,0.0277102,
874,0.0290403,
873,0.030467,
872,0.0319887,
871,0.033533,
870,0.0352146,
869,0.0368446,
868,0.0384906,
867,0.0401633,
866,0.0416847,
865,0.0431433,
864,0.0444803,
863,0.0457075,
862,0.0467347,
861,0.0474852,
860,0.0481214,
859,0.0484986,
858,0.0486931,
857,0.0487054,
856,0.0484839,
855,0.0481263,
854,0.0476677,
853,0.0470731,
852,0.0464201,
851,0.0456837,
850,0.0449369,
849,0.0441763,
848,0.043434,
847,0.0427183,
846,0.042009,
845,0.0413562,
844,0.0406928,
843,0.0400746,
842,0.039473,
841,0.038875,
840,0.0383034,
839,0.0377487,
838,0.0371386,
837,0.0365806,
836,0.0360334,
835,0.0354281,
834,0.0348534,
833,0.0342158,
832,0.0335924,
831,0.0330099,
830,0.0323425,
829,0.0317051,
828,0.0310294,
827,0.0303758,
826,0.0297341,
825,0.0290237,
824,0.0283694,
823,0.0277194,
822,0.0270822,
821,0.0264725,
820,0.0258577,
819,0.0252514,
818,0.0246573,
817,0.0241676,
816,0.0235636,
815,0.023089,
814,0.022601,
813,0.022092,
812,0.0215976,
811,0.02114,
810,0.0206917,
809,0.0202539,
808,0.0199004,
807,0.0194699,
806,0.0190993,
805,0.0187421,
804,0.0183408,
803,0.0180414,
802,0.017724,
801,0.0175154,
800,0.0171674,
799,0.016739,
798,0.0165049,
797,0.0163189,
796,0.0162463,
795,0.0161035,
794,0.0161071,
793,0.0160907,
792,0.0161126,
791,0.01613,
790,0.0161126,
789,0.0160949,
788,0.0160915,
787,0.0160801,
786,0.0160792,
785,0.0161046,
784,0.0160047,
783,0.0160278,
782,0.0159926,
781,0.0159891,
780,0.016073,
779,0.0161085,
778,0.0161198,
777,0.0161907,
776,0.0162724,
775,0.0164932,
774,0.0166386,
773,0.0167006,
772,0.0168309,
771,0.0170017,
770,0.0171785,
769,0.0174326,
768,0.0175539,
767,0.0178652,
766,0.0180788,
765,0.0183301,
764,0.01858,
763,0.0187769,
762,0.0190755,
761,0.0192516,
760,0.0194081,
759,0.0195393,
758,0.0197384,
757,0.0198379,
756,0.0198954,
755,0.0198977,
754,0.0199798,
753,0.0199576,
752,0.0199342,
751,0.0198871,
750,0.0197907,
749,0.019725,
748,0.0196492,
747,0.0194986,
746,0.0194306,
745,0.0193886,
744,0.0193201,
743,0.0191974,
742,0.0191411,
741,0.0190448,
740,0.0190725,
739,0.0189987,
738,0.0190204,
737,0.0189366,
736,0.0189096,
735,0.0188943,
734,0.0188651,
733,0.0188209,
732,0.0188083,
731,0.0187599,
730,0.0186794,
729,0.0186443,
728,0.0185204,
727,0.0184344,
726,0.0182432,
725,0.0180628,
724,0.0179117,
723,0.0178118,
722,0.017664,
721,0.0175307,
720,0.0174344,
719,0.0173113,
718,0.0171628,
717,0.0170784,
716,0.0170061,
715,0.0169039,
714,0.0168268,
713,0.0167901,
712,0.0167144,
711,0.0167196,
710,0.0166841,
709,0.0166486,
708,0.0166627,
707,0.0165889,
706,0.0166167,
705,0.0166516,
704,0.0166359,
703,0.0165923,
702,0.0165364,
701,0.0165319,
700,0.0165157,
699,0.0164537,
698,0.016484,
697,0.0163964,
696,0.0163538,
695,0.0163372,
694,0.0163683,
693,0.0163945,
692,0.0164422,
691,0.0164416,
690,0.0165021,
689,0.0165868,
688,0.016655,
687,0.0167854,
686,0.0168658,
685,0.016983,
684,0.0170574,
683,0.0172167,
682,0.0173626,
681,0.0174807,
680,0.0176942,
679,0.0178598,
678,0.01813,
677,0.0183048,
676,0.0185028,
675,0.0187338,
674,0.0189788,
673,0.0192843,
672,0.0195443,
671,0.0198152,
670,0.0200891,
669,0.0204996,
668,0.0207762,
667,0.0210426,
666,0.0213829,
665,0.0217196,
664,0.0221197,
663,0.02256,
662,0.023039,
661,0.0233916,
660,0.0239187,
659,0.0244017,
658,0.0250135,
657,0.0255925,
656,0.0262423,
655,0.0268963,
654,0.0275063,
653,0.0282411,
652,0.0288978,
651,0.0295574,
650,0.0301795,
649,0.0306063,
648,0.0309186,
647,0.0310374,
646,0.0309605,
645,0.0305402,
644,0.0299799,
643,0.0293057,
642,0.0286176,
641,0.027917,
640,0.0272521,
639,0.0266693,
638,0.0262815,
637,0.0260458,
636,0.0258157,
635,0.0257889,
634,0.0258221,
633,0.0259214,
632,0.0261468,
631,0.0264034,
630,0.0265791,
629,0.0267691,
628,0.0270843,
627,0.0272928,
626,0.0275977,
625,0.0279224,
624,0.0282609,
623,0.0285912,
622,0.0289781,
621,0.029368,
620,0.0296517,
619,0.0300282,
618,0.0304545,
617,0.0308005,
616,0.0311526,
615,0.0316107,
614,0.0318565,
613,0.0322108,
612,0.0325788,
611,0.0329464,
610,0.0334149,
609,0.033848,
608,0.034357,
607,0.034849,
606,0.0355536,
605,0.0363383,
604,0.0371299,
603,0.0381115,
602,0.0392068,
601,0.0403857,
600,0.0417663,
599,0.0433519,
598,0.0450917,
597,0.0470126,
596,0.0491631,
595,0.0514725,
594,0.0539357,
593,0.0565298,
592,0.0592892,
591,0.0621167,
590,0.0650069,
589,0.0679964,
588,0.0710707,
587,0.0743304,
586,0.0781742,
585,0.0824353,
584,0.0872786,
583,0.0929729,
582,0.0993693,
581,0.106557,
580,0.114417,
579,0.122443,
578,0.130706,
577,0.138397,
576,0.145312,
575,0.150784,
574,0.154152,
573,0.155244,
572,0.153842,
571,0.150158,
570,0.144384,
569,0.137192,
568,0.128639,
567,0.119735,
566,0.110903,
565,0.102296,
564,0.0944058,
563,0.0871079,
562,0.0805143,
561,0.0746776,
560,0.0695539,
559,0.0649372,
558,0.0609582,
557,0.0575418,
556,0.0544916,
555,0.0518558,
554,0.0495546,
553,0.0474988,
552,0.0457313,
551,0.0441432,
550,0.0427141,
549,0.0414776,
548,0.040363,
547,0.0393249,
546,0.0383623,
545,0.0376175,
544,0.0368533,
543,0.0363458,
542,0.0358868,
541,0.0356285,
540,0.0353033,
539,0.0352336,
538,0.0351595,
537,0.0353532,
536,0.0355688,
535,0.0359259,
534,0.0364978,
533,0.0371998,
532,0.0379118,
531,0.0387764,
530,0.039603,
529,0.0404869,
528,0.0413119,
527,0.0420995,
526,0.0427982,
525,0.0433226,
524,0.0436309,
523,0.0437508,
522,0.0437324,
521,0.0435091,
520,0.0431321,
519,0.0426598,
518,0.0421016,
517,0.0414763,
516,0.0407581,
515,0.0399971,
514,0.0392451,
513,0.038428,
512,0.0377223,
511,0.0370051,
510,0.0363071,
509,0.0356146,
508,0.0349624,
507,0.0342848,
506,0.0337535,
505,0.0332361,
504,0.0328728,
503,0.032385,
502,0.0320302,
501,0.0317893,
500,0.0315447,
499,0.0313407,
498,0.0312045,
497,0.0311584,
496,0.0310897,
495,0.0311283,
494,0.0312287,
493,0.031354,
492,0.0314159,
491,0.0315508,
490,0.0317724,
489,0.0320067,
488,0.0321841,
487,0.0324942,
486,0.0328251,
485,0.033066,
484,0.0333965,
483,0.0337024,
482,0.034008,
481,0.0342301,
480,0.0344289,
479,0.0345916,
478,0.0346743,
477,0.0347259,
476,0.0347513,
475,0.0347103,
474,0.0346915,
473,0.0346087,
472,0.0345422,
471,0.0345218,
470,0.0344887,
469,0.0344,
468,0.0343738,
467,0.0342779,
466,0.0342773,
465,0.034267,
464,0.0343013,
463,0.0343194,
462,0.0344827,
461,0.0345778,
460,0.0347086,
459,0.0348018,
458,0.0349622,
457,0.0350786,
456,0.0352644,
455,0.0356195,
454,0.0357987,
453,0.0360716,
452,0.0363988,
451,0.0366384,
450,0.0370322,
449,0.0372588,
448,0.03755,
447,0.0378428,
446,0.0381317,
445,0.0383665,
444,0.0385706,
443,0.0388536,
442,0.0390986,
441,0.0393542,
440,0.0395551,
439,0.0397744,
438,0.0400222,
437,0.0402661,
436,0.0405071,
435,0.0408538,
434,0.0411162,
433,0.0414163,
432,0.0417379,
431,0.0420449,
430,0.0423528,
429,0.0427357,
428,0.0430787,
427,0.0434014,
426,0.0437652,
425,0.0441268,
424,0.0445208,
423,0.0449742,
422,0.0454321,
421,0.0458708,
420,0.046325,
419,0.0468248,
418,0.0474518,
417,0.0479462,
416,0.0485716,
415,0.0492076,
414,0.0497869,
413,0.0504144,
412,0.051114,
411,0.0518569,
410,0.0525924,
409,0.0534925,
408,0.0543519,
407,0.0551816,
406,0.056121,
405,0.0571001,
404,0.0582964,
403,0.0595134,
402,0.060892,
401,0.0623377,
400,0.0640341,
399,0.0659049,
398,0.067986,
397,0.0703391,
396,0.072977,
395,0.0759887,
394,0.0794128,
393,0.0831951,
392,0.0874847,
391,0.092247,
390,0.0976686,
389,0.103913,
388,0.110882,
387,0.118803,
386,0.127865,
385,0.138279,
384,0.150111,
383,0.163869,
382,0.180125,
381,0.20033,
380,0.226057,
379,0.260638,
378,0.309204,
377,0.379205,
376,0.481144,
375,0.627349,
374,0.829192,
373,1.10262,
372,1.44899,
371,1.8646,
370,2.31656,
369,2.72188,
368,2.98112,
367,3.08828,
366,3.12513,
365,3.13762,
364,3.13971,
363,3.14233,
362,3.14255,
361,3.14411,
360,3.14325,
359,3.14375,
358,3.14486,
357,3.14405,
356,3.14314,
355,3.14196,
354,3.14092,
353,3.13921,
352,3.13906,
351,3.13986,
350,3.13825,
349,3.11628,
348,3.13147,
347,3.13246,
346,3.13203,
345,3.13074,
344,3.12573,
343,3.12528,
342,3.12399,
341,3.11884,
340,3.11393,
339,3.1059,
338,3.09571,
337,3.08131,
336,3.0684,
335,3.04729,
334,3.03093,
333,3.00933,
332,2.98627,
331,2.96453,
330,2.93924,
329,2.91844,
328,2.89158,
327,2.86394,
326,2.83683,
325,2.80658,
324,2.77391,
323,2.73832,
322,2.70185,
321,2.66362,
320,2.62356,
319,2.58111,
318,2.54075,
317,2.49891,
316,2.45921,
315,2.42045,
314,2.38196,
313,2.34571,
312,2.31001,
311,2.27384,
310,2.23706,
309,2.19922,
308,2.15947,
307,2.11855,
306,2.07672,
305,2.03465,
304,1.99278,
303,1.95092,
302,1.91003,
301,1.8686,
300,1.82699,