File: Absorption_Analysis/Absorption - Correction Files/Absorption BG Susbtraction/Surfactant_Film.txt
Surfactant Film
Wavelength(nm),Absorption
250,0.025274
252,0.031895
254,0.030471
256,0.028897
258,0.026404
260,0.027329
262,0.025668
264,0.023898
266,0.023669
268,0.024846
270,0.025259
272,0.024536
274,0.024791
276,0.024686
278,0.025278
280,0.024085
282,0.023615
284,0.024041
286,0.023001
288,0.023204
290,0.022826
292,0.021919
294,0.020936
296,0.020819
298,0.019821
300,0.01922
302,0.018179
304,0.017563
306,0.017338
308,0.01698
310,0.01646
312,0.01639
314,0.016055
316,0.015835
318,0.015356
320,0.01561
322,0.015435
324,0.015451
326,0.015119
328,0.014919
330,0.014524
332,0.014521
334,0.014092
336,0.013673
338,0.01339
340,0.013695
342,0.01338
344,0.013212
346,0.013097
348,0.013311
350,0.013311
352,0.013652
354,0.0134
356,0.013112
358,0.013034
360,0.012883
362,0.01262
364,0.012532
366,0.012302
368,0.012193
370,0.012304
372,0.012398
374,0.012525
376,0.01253
378,0.012506
380,0.01242
382,0.011928
384,0.011935
386,0.011563
388,0.011295
390,0.010997
392,0.011026
394,0.010838
396,0.010358
398,0.010303
400,0.010262
402,0.010257
404,0.010083
406,0.010177
408,0.010231
410,0.010345
412,0.010182
414,0.010232
416,0.010185
418,0.010118
420,0.0099223
422,0.0097835
424,0.0097386
426,0.0094243
428,0.0093694
430,0.0093466
432,0.0092307
434,0.0091755
436,0.0091142
438,0.0089814
440,0.0088031
442,0.0089217
444,0.0087346
446,0.0086053
448,0.0086755
450,0.0089382
452,0.0085155
454,0.0085599
456,0.0084104
458,0.0085494
460,0.0083641
462,0.0084244
464,0.0083037
466,0.0082161
468,0.008131
470,0.0080698
472,0.0081414
474,0.0081393
476,0.0079519
478,0.007924
480,0.007792
482,0.007931
484,0.0079248
486,0.0078229
488,0.007783
490,0.0078625
492,0.0077234
494,0.0076693
496,0.0076319
498,0.0077633
500,0.0077447
502,0.0077465
504,0.0079001
506,0.0078246
508,0.0078193
510,0.0078117
512,0.0078093
514,0.007833
516,0.0078153
518,0.0077085
520,0.0076433
522,0.0075789
524,0.0075932
526,0.0074828
528,0.0075822
530,0.0075001
532,0.0074891
534,0.0075142
536,0.0074216
538,0.0074504
540,0.007498
542,0.0074934
544,0.0075185
546,0.0073774
548,0.0076625
550,0.0076567
552,0.0076611
554,0.0076157
556,0.0077408
558,0.0075603
560,0.0078743
562,0.0077691
564,0.0079067
566,0.0078235
568,0.0078743
570,0.0077917
572,0.0078867
574,0.0079325
576,0.0079885
578,0.0079255
580,0.00799
582,0.0081009
584,0.0081414
586,0.0082119
588,0.0082124
590,0.0083563
592,0.0081873
594,0.0083228
596,0.0083153
598,0.0084389
600,0.0084656
602,0.0084583
604,0.0084399
606,0.0083678
608,0.0083918
610,0.0083629
612,0.0083327
614,0.0082437
616,0.0082243
618,0.0082435
620,0.008272
622,0.0082322
624,0.0082789
626,0.0083143
628,0.0082843
630,0.0084141
632,0.0084321
634,0.0085805
636,0.0085766
638,0.0086963
640,0.0088452
642,0.0090477
644,0.009145
646,0.0091738
648,0.0094276
650,0.0092541
652,0.0094327
654,0.0095309
656,0.0095794
658,0.0093463
660,0.0095365
662,0.0093609
664,0.0093989
666,0.0093328
668,0.0092974
670,0.0090314
672,0.0090457
674,0.0088433
676,0.0089475
678,0.0088139
680,0.0088335
682,0.008744
684,0.0086547
686,0.0085454
688,0.0087182
690,0.0085487
692,0.0084407
694,0.0085634
696,0.0084295
698,0.0084807
700,0.0084819
702,0.0082824
704,0.0083853
706,0.0083561
708,0.0084742
710,0.00849
712,0.0084925
714,0.0085895
716,0.0085813
718,0.0087911
720,0.0088174
722,0.0088648
724,0.0088814
726,0.0090532
728,0.0092433
730,0.0092042
732,0.0091553
734,0.0092608
736,0.0092013
738,0.0091998
740,0.0089859
742,0.009014
744,0.0087583
746,0.0086364
748,0.0086907
750,0.0085745
752,0.0084576
754,0.008372
756,0.0082133
758,0.0084064
760,0.0079605
762,0.0081336
764,0.00786
766,0.007993
768,0.007774
770,0.0077861
772,0.0075963
774,0.0075144
776,0.0074661
778,0.0076551
780,0.007669
782,0.0077222
784,0.0074358
786,0.0075199
788,0.0076042
790,0.0074187
792,0.0072188
794,0.0074512
796,0.0073322
798,0.0073327
800,0.0073327
802,0.0073319
804,0.0073046
806,0.0073391
808,0.0072347
810,0.007296
812,0.007255
814,0.0072622
816,0.007284
818,0.0072338
820,0.0072108
822,0.0072106
824,0.0072347
826,0.0071713
828,0.0070875
830,0.0070983
832,0.0069789
834,0.0069793
836,0.0068868
838,0.0068572
840,0.0068016
842,0.0067725
844,0.0067227
846,0.0066999
848,0.006658
850,0.0066281
852,0.0065646
854,0.0065807
856,0.0065089
858,0.0065715
860,0.006425
862,0.0064237
864,0.0064295
866,0.0063604
868,0.0063745
870,0.006289
872,0.0062887
874,0.0061895
876,0.0062368
878,0.0062253
880,0.0062006
882,0.006168
884,0.0060468
886,0.005988
888,0.0060915
890,0.0059881
892,0.005925
894,0.0059231
896,0.0058671
898,0.0059826
900,0.0058302
902,0.0057775
904,0.0058145
906,0.0057971
908,0.0057738
910,0.0057494
912,0.005793
914,0.0058123
916,0.0057833
918,0.0057069
920,0.0057039
922,0.0058374
924,0.0057057
926,0.0057806
928,0.0058288
930,0.0058181
932,0.0058583
934,0.0058796
936,0.0058992
938,0.0059061
940,0.0059466
942,0.0059108
944,0.0060153
946,0.0060227
948,0.0060029
950,0.006037
952,0.0060064
954,0.0060744
956,0.0061302
958,0.0060694
960,0.006164
962,0.006195
964,0.0062073
966,0.0062138
968,0.0063048
970,0.0062956
972,0.0063594
974,0.0063463
976,0.0063318
978,0.0063827
980,0.0063994
982,0.0064757
984,0.0064978
986,0.0065443
988,0.0065848
990,0.006611
992,0.0066537
994,0.0066377
996,0.0066518
998,0.0066638
1000,0.0067124
1002,0.0066843
1004,0.0067376
1006,0.0067092
1008,0.006734
1010,0.006741
1012,0.0067537
1014,0.0067978
1016,0.0066945
1018,0.006705
1020,0.0067674
1022,0.0067951
1024,0.0067769
1026,0.0068088
1028,0.0067623
1030,0.0068363
1032,0.0068521
1034,0.0067542
1036,0.0067612
1038,0.0068268
1040,0.0067799
1042,0.0068526
1044,0.0068689
1046,0.0068315
1048,0.0069046
1050,0.0068499
1052,0.0068182
1054,0.006796
1056,0.0068634
1058,0.0068923
1060,0.0068723
1062,0.0067819
1064,0.0068225
1066,0.0068525
1068,0.0067555
1070,0.0068383
1072,0.0068444
1074,0.0068507
1076,0.0068078
1078,0.0067807
1080,0.0068165
1082,0.0068917
1084,0.0068457
1086,0.0068969
1088,0.0068829
1090,0.0069034
1092,0.0069172
1094,0.0069213
1096,0.0069501
1098,0.0070074
1100,0.0070429
1102,0.0070911
1104,0.0071752
1106,0.0072019
1108,0.0073596
1110,0.0074166
1112,0.0074885
1114,0.0076144
1116,0.0077415
1118,0.0078656
1120,0.0079676
1122,0.0081663
1124,0.0083189
1126,0.0084965
1128,0.0086415
1130,0.0087769
1132,0.0089157
1134,0.0090794
1136,0.0092648
1138,0.0093297
1140,0.0094861
1142,0.0096058
1144,0.0097958
1146,0.0098369
1148,0.0099778
1150,0.010009
1152,0.01015
1154,0.010157
1156,0.010169
1158,0.010194
1160,0.010238
1162,0.010203
1164,0.010227
1166,0.0102
1168,0.010212
1170,0.010202
1172,0.010199
1174,0.010149
1176,0.010107
1178,0.010085
1180,0.010056
1182,0.0099326
1184,0.0099329
1186,0.009944
1188,0.0099291
1190,0.00987
1192,0.0098253
1194,0.0097547
1196,0.0097324
1198,0.0097324
1200,0.0097324
1202,0.0096766
1204,0.00964
1206,0.0095435
1208,0.0095325
1210,0.0094806
1212,0.0094527
1214,0.0093382
1216,0.0093249
1218,0.0092298
1220,0.0092175
1222,0.0090981
1224,0.0090403
1226,0.0089602
1228,0.0089677
1230,0.0087843
1232,0.0087478
1234,0.0086171
1236,0.0086355
1238,0.0085242
1240,0.0085085
1242,0.0083302
1244,0.0083906
1246,0.008258
1248,0.0082944
1250,0.0081802
1252,0.0081987
1254,0.0081263
1256,0.0081788
1258,0.0081046
1260,0.0081176
1262,0.0080936
1264,0.0081045
1266,0.0081376
1268,0.0081156
1270,0.008089
1272,0.0081767
1274,0.0081223
1276,0.0081748
1278,0.0081569
1280,0.0081308
1282,0.0082076
1284,0.0082867
1286,0.0081719
1288,0.0082487
1290,0.0082121
1292,0.0082368
1294,0.0082367
1296,0.0081672
1298,0.0081561
1300,0.0081852
1302,0.0081227
1304,0.0080928
1306,0.0081201
1308,0.0080245
1310,0.008075
1312,0.0079914
1314,0.007933
1316,0.0078636
1318,0.0077872
1320,0.0077001
1322,0.0076854
1324,0.0075789
1326,0.0075133
1328,0.0074343
1330,0.007404
1332,0.0073101
1334,0.007229
1336,0.0070776
1338,0.0070698
1340,0.0069572
1342,0.0069773
1344,0.0068052
1346,0.0067794
1348,0.0067054
1350,0.0067179
1352,0.0065374
1354,0.0064968
1356,0.0064598
1358,0.0064319
1360,0.0063514
1362,0.0064132
1364,0.00636
1366,0.0062584
1368,0.0062207
1370,0.0061923
1372,0.006191
1374,0.0060899
1376,0.0059807
1378,0.005883
1380,0.0059187
1382,0.0059907
1384,0.005968
1386,0.0059611
1388,0.0057993
1390,0.005764
1392,0.0056604
1394,0.0057063
1396,0.0056184
1398,0.0056456
1400,0.0056331
1402,0.0056296
1404,0.0056272
1406,0.005526
1408,0.0055417
1410,0.0055367
1412,0.0054925
1414,0.005406
1416,0.0054561
1418,0.0053711
1420,0.0054161
1422,0.0053741
1424,0.0053349
1426,0.0052778
1428,0.0053042
1430,0.0052686
1432,0.0052846
1434,0.0052515
1436,0.0052349
1438,0.0052206
1440,0.0051883
1442,0.0051699
1444,0.0051854
1446,0.0051282
1448,0.0051228
1450,0.0051291
1452,0.0051151
1454,0.0050898
1456,0.0050402
1458,0.004954
1460,0.0049755
1462,0.0049676
1464,0.0048623
1466,0.0048208
1468,0.0048481
1470,0.0047771
1472,0.004846
1474,0.0047637
1476,0.0046966
1478,0.0047013
1480,0.0046479
1482,0.0046634
1484,0.0046243
1486,0.0046007
1488,0.004578
1490,0.0045065
1492,0.0044818
1494,0.0044777
1496,0.0043977
1498,0.0044003
1500,0.0043611
1502,0.0043836
1504,0.00428
1506,0.0043264
1508,0.0042578
1510,0.0042671
1512,0.0043041
1514,0.0042657
1516,0.0042301
1518,0.0041498
1520,0.0040857
1522,0.0041042
1524,0.0040332
1526,0.0041379
1528,0.0040708
1530,0.0040371
1532,0.0040331
1534,0.0040329
1536,0.0040198
1538,0.0040198
1540,0.003952
1542,0.0040139
1544,0.0040172
1546,0.0039143
1548,0.0039686
1550,0.003875
1552,0.0038888
1554,0.003892
1556,0.0038799
1558,0.0038532
1560,0.003876
1562,0.003845
1564,0.0038946
1566,0.0038676
1568,0.0038358
1570,0.0038092
1572,0.0037742
1574,0.0037346
1576,0.0037638
1578,0.0037362
1580,0.0037178
1582,0.0036733
1584,0.003738
1586,0.0037182
1588,0.0037236
1590,0.003671
1592,0.0036897
1594,0.0036311
1596,0.0036285
1598,0.0036252
1600,0.0036005
1602,0.0035225
1604,0.003583
1606,0.0036077
1608,0.0035214
1610,0.0035383
1612,0.0034917
1614,0.003486
1616,0.0035711
1618,0.0035082
1620,0.00346
1622,0.0034482
1624,0.0034404
1626,0.0033453
1628,0.0034237
1630,0.0033879
1632,0.0033518
1634,0.003373
1636,0.0033417
1638,0.0033468
1640,0.0033474
1642,0.0032782
1644,0.003318
1646,0.0032688
1648,0.0032379
1650,0.0032671
1652,0.0032286
1654,0.0031894
1656,0.0032113
1658,0.0031848
1660,0.003185
1662,0.0032235
1664,0.0031617
1666,0.0031393
1668,0.0031792
1670,0.0031117
1672,0.003124
1674,0.0031347
1676,0.0030537
1678,0.0031834
1680,0.0031062
1682,0.0030715
1684,0.003067
1686,0.0030735
1688,0.0030817
1690,0.003043
1692,0.0029451
1694,0.0030037
1696,0.0029351
1698,0.0029885
1700,0.0030302
1702,0.0030403
1704,0.0029683
1706,0.0029575
1708,0.0029747
1710,0.0029771
1712,0.0030114
1714,0.002911
1716,0.0029467
1718,0.0029193
1720,0.0029322
1722,0.0029619
1724,0.0029503
1726,0.0029715
1728,0.002935
1730,0.0029413
1732,0.0029514
1734,0.0029144
1736,0.002905
1738,0.0028843
1740,0.002874
1742,0.0028794
1744,0.0028964
1746,0.0028307
1748,0.0028436
1750,0.0028399
1752,0.0028645
1754,0.0028525
1756,0.002904
1758,0.0028683
1760,0.0028412
1762,0.0028387
1764,0.0028532
1766,0.0028033
1768,0.0027754
1770,0.0027378
1772,0.0027609
1774,0.0027732
1776,0.0027931
1778,0.0028053
1780,0.0027468
1782,0.0027767
1784,0.0027667
1786,0.002743
1788,0.0027569
1790,0.0026939
1792,0.0026961
1794,0.0027505
1796,0.0027394
1798,0.0026978
1800,0.0027605
1802,0.0027186
1804,0.0026978
1806,0.0027548
1808,0.0027162
1810,0.0027269
1812,0.002783
1814,0.0026846
1816,0.0027142
1818,0.0027015
1820,0.0026715
1822,0.0027257
1824,0.0026944
1826,0.0026779
1828,0.0027546
1830,0.0027647
1832,0.002676
1834,0.0027226
1836,0.0026644
1838,0.0026976
1840,0.0027345
1842,0.0028023
1844,0.0027987
1846,0.0028061
1848,0.0027753
1850,0.0028555
1852,0.0027938
1854,0.0027751
1856,0.0027597
1858,0.0027531
1860,0.0026783
1862,0.0027746
1864,0.0027468
1866,0.0026692
1868,0.0027055
1870,0.0026255
1872,0.0026697
1874,0.0027456
1876,0.0027441
1878,0.0027988
1880,0.0026813
1882,0.0026868
1884,0.0027202
1886,0.002774
1888,0.0027126
1890,0.0027517
1892,0.002704
1894,0.0026343
1896,0.0026969
1898,0.0026277
1900,0.0026651
1902,0.002574
1904,0.0025935
1906,0.00261
1908,0.0026806
1910,0.0026306
1912,0.0026782
1914,0.0026509
1916,0.002677
1918,0.0026768
1920,0.0026507
1922,0.0027257
1924,0.0026777
1926,0.0026444
1928,0.0026465
1930,0.0026432
1932,0.0026614
1934,0.0027251
1936,0.0026624
1938,0.0026516
1940,0.0026884
1942,0.0026743
1944,0.0026755
1946,0.002653
1948,0.0026518
1950,0.0026305
1952,0.0026404
1954,0.0026365
1956,0.0027085
1958,0.0026095
1960,0.0026368
1962,0.0026506
1964,0.0025842
1966,0.0026901
1968,0.0026871
1970,0.0026396
1972,0.0026592
1974,0.0026398
1976,0.0026182
1978,0.0027196
1980,0.002661
1982,0.0025981
1984,0.0026705
1986,0.0026261
1988,0.002639
1990,0.0027177
1992,0.0026377
1994,0.0026344
1996,0.002599
1998,0.0025396
2000,0.0026264