File: AbsorptionAnalysis/AbsorptionBGSubstraction_Pfolh2017/DodecaneCryostatFilm/Dodecane_KIT_Temp_98.txt
Dodecane_KIT_Temp_98
Wavelength (nm),Abs
2655,0.0840743
2653,0.0798183
2651,0.0843094
2649,0.0849369
2647,0.0833367
2645,0.0840807
2643,0.0832169
2641,0.0845656
2639,0.0848315
2637,0.0846751
2635,0.0842802
2633,0.0820292
2631,0.0767983
2629,0.085336
2627,0.0805644
2625,0.0839094
2623,0.084006
2621,0.0813455
2619,0.0836383
2617,0.0787913
2615,0.0835767
2613,0.0838994
2611,0.083672
2609,0.0828141
2607,0.0772732
2605,0.0775794
2603,0.0834749
2601,0.0851766
2599,0.0837272
2597,0.0802167
2595,0.0780341
2593,0.0845925
2591,0.0837955
2589,0.0842895
2587,0.0844653
2585,0.0823982
2583,0.0847351
2581,0.0865456
2579,0.0839271
2577,0.0802832
2575,0.0825565
2573,0.0844944
2571,0.0824562
2569,0.0848461
2567,0.0846591
2565,0.0838055
2563,0.0852351
2561,0.0846388
2559,0.0847743
2557,0.0846911
2555,0.0841995
2553,0.0854606
2551,0.0859843
2549,0.0836021
2547,0.0851743
2545,0.0851168
2543,0.086
2541,0.0846837
2539,0.0845423
2537,0.0853679
2535,0.0848491
2533,0.085081
2531,0.0855726
2529,0.0848669
2527,0.0846995
2525,0.0845977
2523,0.0851135
2521,0.0850932
2519,0.0846297
2517,0.0849698
2515,0.0851131
2513,0.0849529
2511,0.0850949
2509,0.0849677
2507,0.0853444
2505,0.0852965
2503,0.0853894
2501,0.0855621
2499,0.0855569
2497,0.0855992
2495,0.0858501
2493,0.0855705
2491,0.0856832
2489,0.0854977
2487,0.0858586
2485,0.0858196
2483,0.0860597
2481,0.085952
2479,0.0862615
2477,0.0862802
2475,0.0861239
2473,0.0859644
2471,0.0867002
2469,0.0864519
2467,0.0865978
2465,0.0867833
2463,0.0866496
2461,0.0866078
2459,0.0869215
2457,0.0870714
2455,0.0869492
2453,0.0872117
2451,0.0874581
2449,0.0871551
2447,0.0870918
2445,0.0875829
2443,0.087514
2441,0.0876822
2439,0.0879636
2437,0.0877669
2435,0.0880104
2433,0.0882239
2431,0.0882099
2429,0.0883568
2427,0.0886666
2425,0.0887065
2423,0.0884723
2421,0.0888432
2419,0.0887471
2417,0.0890052
2415,0.089198
2413,0.089214
2411,0.0893971
2409,0.0895231
2407,0.0896105
2405,0.0898252
2403,0.0899234
2401,0.0899158
2399,0.0900898
2397,0.0902579
2395,0.0903972
2393,0.0906452
2391,0.090535
2389,0.0908876
2387,0.091001
2385,0.0909804
2383,0.0914801
2381,0.091328
2379,0.0914488
2377,0.0918134
2375,0.091732
2373,0.0921323
2371,0.0920071
2369,0.0921682
2367,0.092488
2365,0.0924133
2363,0.0928712
2361,0.0928304
2359,0.0931573
2357,0.0933223
2355,0.0933186
2353,0.0938699
2351,0.0936843
2349,0.0941904
2347,0.0942247
2345,0.0943813
2343,0.0947777
2341,0.094688
2339,0.0950391
2337,0.0949755
2335,0.0955312
2333,0.0954672
2331,0.0958241
2329,0.0960205
2327,0.0961477
2325,0.0962548
2323,0.0966728
2321,0.0969615
2319,0.0967322
2317,0.0973998
2315,0.0973639
2313,0.0978116
2311,0.0977128
2309,0.098299
2307,0.0982882
2305,0.0985575
2303,0.0987222
2301,0.0990252
2299,0.0989982
2297,0.0993697
2295,0.099471
2293,0.0996813
2291,0.0999823
2289,0.100624
2287,0.100398
2285,0.100863
2283,0.100974
2281,0.101472
2279,0.101152
2277,0.101583
2275,0.101803
2273,0.102647
2271,0.102421
2269,0.102722
2267,0.103341
2265,0.103657
2263,0.103314
2261,0.103973
2259,0.104477
2257,0.104713
2255,0.105265
2253,0.105359
2251,0.106114
2249,0.105918
2247,0.106757
2245,0.107012
2243,0.107274
2241,0.107539
2239,0.107857
2237,0.108369
2235,0.108734
2233,0.109148
2231,0.109369
2229,0.109626
2227,0.110226
2225,0.110624
2223,0.111205
2221,0.111237
2219,0.111868
2217,0.111902
2215,0.112396
2213,0.113146
2211,0.113215
2209,0.113658
2207,0.114001
2205,0.114464
2203,0.115117
2201,0.115651
2199,0.115634
2197,0.116373
2195,0.116668
2193,0.117395
2191,0.117716
2189,0.118059
2187,0.118611
2185,0.119021
2183,0.119231
2181,0.119749
2179,0.120284
2177,0.120704
2175,0.121167
2173,0.121709
2171,0.122117
2169,0.122668
2167,0.122985
2165,0.1235
2163,0.123968
2161,0.124497
2159,0.124795
2157,0.125566
2155,0.126057
2153,0.12627
2151,0.127022
2149,0.127643
2147,0.127982
2145,0.128526
2143,0.129101
2141,0.129731
2139,0.130042
2137,0.130615
2135,0.131242
2133,0.131703
2131,0.132206
2129,0.132618
2127,0.133433
2125,0.133848
2123,0.134603
2121,0.135118
2119,0.135784
2117,0.136147
2115,0.136863
2113,0.137465
2111,0.138368
2109,0.138593
2107,0.139376
2105,0.139981
2103,0.140565
2101,0.141435
2099,0.141924
2097,0.142467
2095,0.14326
2093,0.143848
2091,0.144648
2089,0.145204
2087,0.146037
2085,0.146521
2083,0.147351
2081,0.148087
2079,0.148721
2077,0.14929
2075,0.150253
2073,0.150894
2071,0.151581
2069,0.152506
2067,0.153074
2065,0.153851
2063,0.154524
2061,0.155357
2059,0.156129
2057,0.156804
2055,0.157615
2053,0.158417
2051,0.159219
2049,0.159941
2047,0.160682
2045,0.161578
2043,0.162386
2041,0.163258
2039,0.163973
2037,0.164735
2035,0.165496
2033,0.166328
2031,0.167187
2029,0.167982
2027,0.168836
2025,0.16961
2023,0.170235
2021,0.171302
2019,0.172032
2017,0.172889
2015,0.17367
2013,0.174467
2011,0.175293
2009,0.175979
2007,0.176859
2005,0.177525
2003,0.178336
2001,0.179058
1999,0.180055
1997,0.180764
1995,0.181472
1993,0.182388
1991,0.183115
1989,0.183823
1987,0.184592
1985,0.185319
1983,0.186055
1981,0.186692
1979,0.187578
1977,0.188298
1975,0.189069
1973,0.189709
1971,0.190499
1969,0.191224
1967,0.191831
1965,0.192578
1963,0.193344
1961,0.193913
1959,0.194668
1957,0.195276
1955,0.196093
1953,0.196753
1951,0.197384
1949,0.198144
1947,0.198793
1945,0.199639
1943,0.200237
1941,0.20077
1939,0.201526
1937,0.20227
1935,0.202866
1933,0.203683
1931,0.204414
1929,0.205278
1927,0.205811
1925,0.20644
1923,0.207354
1921,0.207704
1919,0.208793
1917,0.209301
1915,0.209909
1913,0.210912
1911,0.211647
1909,0.212313
1907,0.212529
1905,0.213863
1903,0.214429
1901,0.214906
1899,0.216166
1897,0.216618
1895,0.216991
1893,0.217993
1891,0.218418
1889,0.219354
1887,0.219885
1885,0.220452
1883,0.221247
1881,0.221763
1879,0.222027
1877,0.222779
1875,0.223097
1873,0.223857
1871,0.224282
1869,0.224835
1867,0.225932
1865,0.225944
1863,0.226506
1861,0.22661
1859,0.2273
1857,0.227632
1855,0.227642
1853,0.228643
1851,0.228363
1849,0.228343
1847,0.229299
1845,0.229104
1843,0.228932
1841,0.229618
1839,0.229498
1837,0.229703
1835,0.22984
1833,0.229464
1831,0.229677
1829,0.22961
1827,0.229374
1825,0.229287
1823,0.229036
1821,0.229066
1819,0.22879
1817,0.22838
1815,0.228231
1813,0.227874
1811,0.227564
1809,0.227136
1807,0.226871
1805,0.226455
1803,0.225861
1801,0.22557
1799,0.225093
1797,0.224622
1795,0.224068
1793,0.223521
1791,0.222985
1789,0.222495
1787,0.221945
1785,0.22144
1783,0.220644
1781,0.220162
1779,0.219481
1777,0.218829
1775,0.218244
1773,0.217531
1771,0.216952
1769,0.216311
1767,0.215653
1765,0.215009
1763,0.214383
1761,0.213668
1759,0.213013
1757,0.212434
1755,0.211713
1753,0.211109
1751,0.210428
1749,0.209652
1747,0.209184
1745,0.208405
1743,0.207677
1741,0.206969
1739,0.206402
1737,0.205713
1735,0.204961
1733,0.204198
1731,0.203582
1729,0.202877
1727,0.202112
1725,0.201391
1723,0.200602
1721,0.199989
1719,0.199129
1717,0.198344
1715,0.197622
1713,0.19683
1711,0.196105
1709,0.195264
1707,0.194572
1705,0.193714
1703,0.192843
1701,0.192116
1699,0.191254
1697,0.190427
1695,0.189611
1693,0.188805
1691,0.187951
1689,0.187142
1687,0.186345
1685,0.185462
1683,0.184653
1681,0.183948
1679,0.182902
1677,0.182133
1675,0.18135
1673,0.180538
1671,0.17976
1669,0.179012
1667,0.178146
1665,0.177363
1663,0.176438
1661,0.175706
1659,0.174937
1657,0.174088
1655,0.173322
1653,0.172515
1651,0.171749
1649,0.170889
1647,0.170178
1645,0.169335
1643,0.168542
1641,0.167852
1639,0.167009
1637,0.166267
1635,0.16552
1633,0.164663
1631,0.16397
1629,0.163194
1627,0.162435
1625,0.161806
1623,0.161037
1621,0.160332
1619,0.159676
1617,0.158929
1615,0.158324
1613,0.157573
1611,0.156966
1609,0.15635
1607,0.155701
1605,0.155081
1603,0.154496
1601,0.153946
1599,0.153391
1597,0.152785
1595,0.152331
1593,0.151763
1591,0.15124
1589,0.15082
1587,0.150286
1585,0.149858
1583,0.149442
1581,0.149033
1579,0.148596
1577,0.148156
1575,0.147751
1573,0.147441
1571,0.146976
1569,0.146687
1567,0.146258
1565,0.145946
1563,0.145614
1561,0.145299
1559,0.144981
1557,0.144655
1555,0.144377
1553,0.144098
1551,0.143759
1549,0.143543
1547,0.143302
1545,0.143052
1543,0.142816
1541,0.142522
1539,0.142361
1537,0.142105
1535,0.141881
1533,0.141717
1531,0.141443
1529,0.141322
1527,0.141069
1525,0.14092
1523,0.140756
1521,0.14059
1519,0.140433
1517,0.140271
1515,0.140103
1513,0.140041
1511,0.139788
1509,0.139659
1507,0.139568
1505,0.139391
1503,0.139336
1501,0.139172
1499,0.139056
1497,0.138946
1495,0.138838
1493,0.138755
1491,0.138602
1489,0.138516
1487,0.138485
1485,0.138285
1483,0.138313
1481,0.138185
1479,0.138168
1477,0.13807
1475,0.137922
1473,0.137933
1471,0.137828
1469,0.137755
1467,0.137756
1465,0.13763
1463,0.137553
1461,0.137468
1459,0.137439
1457,0.137375
1455,0.137333
1453,0.137178
1451,0.137178
1449,0.137129
1447,0.137069
1445,0.137061
1443,0.136984
1441,0.136903
1439,0.136803
1437,0.136888
1435,0.136754
1433,0.136717
1431,0.136752
1429,0.136525
1427,0.136572
1425,0.136457
1423,0.136476
1421,0.136359
1419,0.136328
1417,0.136318
1415,0.136316
1413,0.136251
1411,0.13607
1409,0.136189
1407,0.136093
1405,0.136043
1403,0.135983
1401,0.136063
1399,0.13599
1397,0.135869
1395,0.136072
1393,0.135913
1391,0.135975
1389,0.135823
1387,0.135828
1385,0.135813
1383,0.135868
1381,0.135726
1379,0.135639
1377,0.1355609
1375,0.135407
1373,0.135295
1371,0.135414
1369,0.135233
1367,0.135368
1365,0.135194
1363,0.135082
1361,0.13533
1359,0.135179
1357,0.135137
1355,0.135125
1353,0.135105
1351,0.135091
1349,0.135059
1347,0.135068
1345,0.135031
1343,0.134959
1341,0.135011
1339,0.135022
1337,0.135069
1335,0.135009
1333,0.13505
1331,0.13505
1329,0.135093
1327,0.135145
1325,0.135156
1323,0.135122
1321,0.135237
1319,0.135249
1317,0.135238
1315,0.135374
1313,0.135397
1311,0.135418
1309,0.135557
1307,0.135564
1305,0.135659
1303,0.135757
1301,0.135844
1299,0.135889
1297,0.135996
1295,0.136142
1293,0.136197
1291,0.136344
1289,0.13652
1287,0.136549
1285,0.136738
1283,0.136897
1281,0.137067
1279,0.137172
1277,0.13734
1275,0.137521
1273,0.137664
1271,0.137895
1269,0.138118
1267,0.13831
1265,0.138519
1263,0.138784
1261,0.138999
1259,0.139226
1257,0.139527
1255,0.139788
1253,0.14001
1251,0.140342
1249,0.140576
1247,0.140913
1245,0.141244
1243,0.141546
1241,0.14185
1239,0.142183
1237,0.142535
1235,0.14281
1233,0.143238
1231,0.143625
1229,0.143967
1227,0.144403
1225,0.144694
1223,0.14516
1221,0.145581
1219,0.146032
1217,0.146456
1215,0.146991
1213,0.147438
1211,0.147962
1209,0.148446
1207,0.148985
1205,0.149479
1203,0.150012
1201,0.150588
1199,0.150999
1197,0.15156
1195,0.152153
1193,0.152764
1191,0.153331
1189,0.15397
1187,0.154585
1185,0.15523
1183,0.155901
1181,0.156505
1179,0.157193
1177,0.15781
1175,0.15843
1173,0.159122
1171,0.159717
1169,0.160393
1167,0.161099
1165,0.161675
1163,0.162401
1161,0.163068
1159,0.163709
1157,0.164456
1155,0.165094
1153,0.165828
1151,0.166583
1149,0.167298
1147,0.168115
1145,0.168913
1143,0.16976
1141,0.170624
1139,0.17154
1137,0.172438
1135,0.173447
1133,0.174471
1131,0.1755
1129,0.176497
1127,0.177641
1125,0.178761
1123,0.179858
1121,0.181001
1119,0.182162
1117,0.183287
1115,0.184418
1113,0.185535
1111,0.186604
1109,0.187657
1107,0.188757
1105,0.189702
1103,0.190655
1101,0.191602
1099,0.192405
1097,0.193214
1095,0.193888
1093,0.194496
1091,0.195132
1089,0.195603
1087,0.196116
1085,0.19651
1083,0.196911
1081,0.197319
1079,0.197671
1077,0.197985
1075,0.198356
1073,0.198779
1071,0.199135
1069,0.199558
1067,0.200007
1065,0.200556
1063,0.201149
1061,0.201762
1059,0.202332
1057,0.203013
1055,0.2038
1053,0.204456
1051,0.205255
1049,0.20598
1047,0.206764
1045,0.207469
1043,0.208119
1041,0.208849
1039,0.20938
1037,0.209977
1035,0.210439
1033,0.210873
1031,0.211214
1029,0.21144
1027,0.211599
1025,0.211715
1023,0.211689
1021,0.211595
1019,0.211466
1017,0.211239
1015,0.210991
1013,0.210618
1011,0.21033
1009,0.209867
1007,0.209455
1005,0.209005
1003,0.208451
1001,0.207837
999,0.207337
997,0.206721
995,0.20602
993,0.205389
991,0.204622
989,0.203865
987,0.203125
985,0.202432
983,0.201666
981,0.200871
979,0.200212
977,0.19948
975,0.198844
973,0.198239
971,0.197518
969,0.197013
967,0.196338
965,0.19576
963,0.195239
961,0.194605
959,0.194053
957,0.193507
955,0.192852
953,0.192247
951,0.191565
949,0.190839
947,0.190207
945,0.189499
943,0.188649
941,0.187799
939,0.187196
937,0.18625
935,0.185493
933,0.184863
931,0.184065
929,0.183282
927,0.182509
925,0.181575
923,0.180837
921,0.180053
919,0.179152
917,0.178365
915,0.177497
913,0.176778
911,0.175971
909,0.175109
907,0.174435
905,0.173693
903,0.173103
901,0.172413
899,0.162717
897,0.170236
895,0.174558
893,0.166537
891,0.165653
889,0.171716
887,0.16855
885,0.165912
883,0.173518
881,0.167478
879,0.167578
877,0.168884
875,0.164344
873,0.16777
871,0.170097
869,0.165107
867,0.165731
865,0.164712
863,0.166355
861,0.165153
859,0.165924
857,0.1655
855,0.165115
853,0.165247
851,0.165255
849,0.165006
847,0.164579
845,0.165056
843,0.164965
841,0.165008
839,0.164871
837,0.164589
835,0.164077
833,0.164911
831,0.164729
829,0.164994
827,0.164923
825,0.165496
823,0.165898
821,0.165767
819,0.166096
817,0.166294
815,0.166754
813,0.16691
811,0.167868
809,0.168028
807,0.168725
805,0.168849
803,0.169373
801,0.169591
799,0.170043
797,0.171089
795,0.171592
793,0.171272
791,0.172258
789,0.172704
787,0.173115
785,0.1732
783,0.173905
781,0.174565
779,0.174845
777,0.175466
775,0.176358
773,0.177106
771,0.177896
769,0.178851
767,0.179537
765,0.180465
763,0.181711
761,0.182717
759,0.183855
757,0.184828
755,0.186003
753,0.186857
751,0.18775
749,0.188702
747,0.189324
745,0.189849
743,0.190423
741,0.190745
739,0.19096
737,0.191382
735,0.191405
733,0.191526
731,0.191648
729,0.191732
727,0.191972
725,0.192268
723,0.192426
721,0.193043
719,0.193133
717,0.193144
715,0.193688
713,0.194189
711,0.194347
709,0.194893
707,0.195328
705,0.195186
703,0.195449
701,0.195344
699,0.195425
697,0.195195
695,0.195244
693,0.194931
691,0.194599
689,0.194266
687,0.193804
685,0.193802
683,0.193258
681,0.192804
679,0.192626
677,0.192165
675,0.191764
673,0.19141
671,0.19088
669,0.190689
667,0.190222
665,0.189822
663,0.189508
661,0.189217
659,0.188976
657,0.188685
655,0.188623
653,0.188448
651,0.188061
649,0.187824
647,0.187755
645,0.187422
643,0.18726
641,0.186659
639,0.186609
637,0.186285
635,0.185857
633,0.185811
631,0.185544
629,0.185283
627,0.185002
625,0.185063
623,0.184729
621,0.184721
619,0.184564
617,0.184669
615,0.184843
613,0.184764
611,0.184835
609,0.185032
607,0.185256
605,0.185631
603,0.185994
601,0.186733
599,0.187016
597,0.187517
595,0.188044
593,0.188488
591,0.188845
589,0.189201
587,0.189581
585,0.189873
583,0.190014
581,0.190205
579,0.190401
577,0.190747
575,0.191057
573,0.191872
571,0.192325
569,0.193034
567,0.194114
565,0.195254
563,0.196269
561,0.197122
559,0.197839
557,0.198649
555,0.19883
553,0.199149
551,0.198768
549,0.198979
547,0.198514
545,0.198033
543,0.197918
541,0.197835
539,0.19814
537,0.198545
535,0.199242
533,0.200077
531,0.201053
529,0.201789
527,0.202547
525,0.203114
523,0.203709
521,0.203957
519,0.20423
517,0.204178
515,0.204451
513,0.204368
511,0.204741
509,0.205343
507,0.205699
505,0.206639
503,0.207385
501,0.2083
499,0.209899
497,0.21077
495,0.211815
493,0.212383
491,0.21251
489,0.212414
487,0.211722
485,0.210923
483,0.210591
481,0.210169
479,0.210273
477,0.210633
475,0.211407
473,0.212754
471,0.213722
469,0.214578
467,0.215342
465,0.215569
463,0.215217
461,0.2146
459,0.213834
457,0.213384
455,0.213329
453,0.213299
451,0.213988
449,0.214707
447,0.215483
445,0.216334
443,0.217307
441,0.21769
439,0.218456
437,0.218656
435,0.219263
433,0.219869
431,0.220477
429,0.221252
427,0.222379
425,0.222993
423,0.224191
421,0.225038
419,0.225397
417,0.22544
415,0.225809
413,0.226136
411,0.226648
409,0.227808
407,0.228678
405,0.230192
403,0.231633
401,0.23269
399,0.233957
397,0.234679
395,0.234827
393,0.235565
391,0.23651
389,0.237356
387,0.238394
385,0.239349
383,0.240438
381,0.24218
379,0.243739
377,0.245391
375,0.247196
373,0.249164
371,0.250355
369,0.251452
367,0.252974
365,0.253993
363,0.254351
361,0.255989
359,0.258062
357,0.260143
355,0.262582
353,0.264572
351,0.267183
349,0.266308
347,0.268704
345,0.269635
343,0.271682
341,0.273054
339,0.27638
337,0.278055
335,0.282002
333,0.283157
331,0.28536
329,0.287647
327,0.289914
325,0.293309
323,0.296019
321,0.300793
319,0.303387
317,0.306381
315,0.310067
313,0.314967
311,0.318181
309,0.322232
307,0.327438
305,0.332419
303,0.33633
301,0.341032
299,0.345956
297,0.350644
295,0.35614
293,0.361423
291,0.366665
289,0.372502
287,0.377878
285,0.382571
283,0.387683
281,0.3915
279,0.394962
277,0.398947
275,0.400991
273,0.402429
271,0.403736
269,0.403288
267,0.402628
265,0.401632
263,0.400046
261,0.397191
259,0.394887
257,0.391628
255,0.388089
253,0.38372
251,0.378554
249,0.372826
247,0.366413
245,0.358974
243,0.350863
241,0.343759
239,0.336905
237,0.330746
235,0.324473
233,0.31938
231,0.3162
229,0.313616
227,0.312759
225,0.315263
223,0.323286
221,0.337971
219,0.362962
217,0.397049
215,0.439268
213,0.482942
211,0.524874
209,0.55804
207,0.579528
205,0.588404
203,0.585234
201,0.571492
200,0.561476