File: AbsorptionAnalysis/AbsorptionBGSubstraction_Pfolh2017/DodecaneCryostatFilm/Dodecane_KIT_Vac_75.txt
Dodecane_KIT_Vac_75
Wavelength (nm),Abs
2655,0.0766625
2653,0.0794514
2651,0.0778543
2649,0.0788204
2647,0.078472
2645,0.0808814
2643,0.0789902
2641,0.0785832
2639,0.0791637
2637,0.0788275
2635,0.0775583
2633,0.0795845
2631,0.0727171
2629,0.0781496
2627,0.0800584
2625,0.0792602
2623,0.0792837
2621,0.0754844
2619,0.0803562
2617,0.0792979
2615,0.0790362
2613,0.0798611
2611,0.0788786
2609,0.0803929
2607,0.0793098
2605,0.0809681
2603,0.0784849
2601,0.0795576
2599,0.0790339
2597,0.0761271
2595,0.0819142
2593,0.0811418
2591,0.0790571
2589,0.079056
2587,0.0813048
2585,0.0757268
2583,0.081358
2581,0.0799399
2579,0.0796842
2577,0.0820532
2575,0.0806009
2573,0.0817764
2571,0.0804476
2569,0.0809385
2567,0.0805915
2565,0.0800169
2563,0.0795999
2561,0.0812631
2559,0.0810385
2557,0.080756
2555,0.0808398
2553,0.0801676
2551,0.080536
2549,0.0807875
2547,0.0810953
2545,0.0812353
2543,0.0810247
2541,0.0807848
2539,0.0813527
2537,0.0800913
2535,0.0810307
2533,0.0808094
2531,0.0808322
2529,0.0815285
2527,0.0814237
2525,0.081794
2523,0.0816951
2521,0.0817063
2519,0.0815705
2517,0.0815719
2515,0.081872
2513,0.0818311
2511,0.0820022
2509,0.0817145
2507,0.0818826
2505,0.0818859
2503,0.0822976
2501,0.0822864
2499,0.0820303
2497,0.0824871
2495,0.0822711
2493,0.0824325
2491,0.08252
2489,0.0823909
2487,0.0827336
2485,0.082701
2483,0.0826448
2481,0.0826908
2479,0.0828249
2477,0.0829038
2475,0.0829232
2473,0.0829271
2471,0.0832288
2469,0.0829576
2467,0.0833784
2465,0.0831434
2463,0.0833451
2461,0.0835071
2459,0.0834675
2457,0.0834965
2455,0.0837698
2453,0.0836545
2451,0.0839317
2449,0.0837232
2447,0.0837938
2445,0.0841217
2443,0.0840547
2441,0.0842177
2439,0.084416
2437,0.08423
2435,0.084498
2433,0.0844287
2431,0.0846144
2429,0.0848358
2427,0.084726
2425,0.0849681
2423,0.084999
2421,0.0849915
2419,0.0851646
2417,0.0852719
2415,0.0852109
2413,0.0855535
2411,0.085584
2409,0.0854741
2407,0.0859644
2405,0.0859757
2403,0.0858407
2401,0.0862507
2399,0.0861264
2397,0.0862611
2395,0.0867573
2393,0.0864237
2391,0.0867278
2389,0.0870486
2387,0.086775
2385,0.0871173
2383,0.0872056
2381,0.0873279
2379,0.0876641
2377,0.087451
2375,0.0878412
2373,0.0878864
2371,0.087986
2369,0.088249
2367,0.0883076
2365,0.0885596
2363,0.088561
2361,0.0889079
2359,0.0890415
2357,0.0891441
2355,0.0894091
2353,0.0893694
2351,0.0897937
2349,0.0897781
2347,0.090156
2345,0.0901145
2343,0.0903973
2341,0.0907263
2339,0.0906689
2337,0.0911167
2335,0.0910325
2333,0.0913026
2331,0.0913495
2329,0.0917942
2327,0.0919029
2325,0.0919157
2323,0.0925461
2321,0.0924153
2319,0.0927658
2317,0.0928134
2315,0.0934126
2313,0.0933101
2311,0.0936925
2309,0.0939141
2307,0.094202
2305,0.0944018
2303,0.0948038
2301,0.0948429
2299,0.0950642
2297,0.095289
2295,0.0955082
2293,0.0956957
2291,0.0961291
2289,0.0966746
2287,0.096411
2285,0.0968203
2283,0.0974205
2281,0.0974521
2279,0.0977615
2277,0.0975609
2275,0.0983629
2273,0.0983163
2271,0.0989871
2269,0.0989286
2267,0.0993804
2265,0.0995408
2263,0.09973
2261,0.0999268
2259,0.100722
2257,0.100946
2255,0.10098
2253,0.101476
2251,0.101578
2249,0.10183
2247,0.10226
2245,0.102956
2243,0.103004
2241,0.103232
2239,0.103617
2237,0.103662
2235,0.104445
2233,0.10468
2231,0.105218
2229,0.105183
2227,0.105746
2225,0.10619
2223,0.106373
2221,0.107073
2219,0.106959
2217,0.107737
2215,0.1081
2213,0.108626
2211,0.109084
2209,0.109113
2207,0.109424
2205,0.110203
2203,0.110417
2201,0.110928
2199,0.111058
2197,0.111506
2195,0.111964
2193,0.112191
2191,0.112613
2189,0.113366
2187,0.1135
2185,0.11397
2183,0.114453
2181,0.114729
2179,0.115298
2177,0.115894
2175,0.115983
2173,0.116778
2171,0.117218
2169,0.117552
2167,0.118029
2165,0.11857
2163,0.118782
2161,0.119461
2159,0.119933
2157,0.120383
2155,0.120858
2153,0.12145
2151,0.121865
2149,0.122412
2147,0.122956
2145,0.123316
2143,0.123778
2141,0.12445
2139,0.125129
2137,0.125507
2135,0.125939
2133,0.126632
2131,0.127036
2129,0.127428
2127,0.128091
2125,0.128641
2123,0.129359
2121,0.129806
2119,0.130458
2117,0.131002
2115,0.131591
2113,0.132289
2111,0.132964
2109,0.133261
2107,0.134115
2105,0.134681
2103,0.135164
2101,0.136061
2099,0.136629
2097,0.137272
2095,0.137833
2093,0.138542
2091,0.139304
2089,0.139896
2087,0.140802
2085,0.141234
2083,0.142008
2081,0.142726
2079,0.143528
2077,0.144102
2075,0.144877
2073,0.145598
2071,0.14628
2069,0.147138
2067,0.147858
2065,0.148521
2063,0.14926
2061,0.150019
2059,0.150817
2057,0.151604
2055,0.152427
2053,0.153074
2051,0.153843
2049,0.15467
2047,0.155419
2045,0.15636
2043,0.156957
2041,0.157959
2039,0.158724
2037,0.159425
2035,0.160215
2033,0.160983
2031,0.161995
2029,0.162587
2027,0.163335
2025,0.164182
2023,0.165024
2021,0.165763
2019,0.166718
2017,0.167532
2015,0.168348
2013,0.168919
2011,0.16982
2009,0.170612
2007,0.171423
2005,0.172114
2003,0.172987
2001,0.173689
1999,0.17463
1997,0.175348
1995,0.176217
1993,0.176904
1991,0.177703
1989,0.178347
1987,0.179134
1985,0.179859
1983,0.180502
1981,0.181419
1979,0.18224
1977,0.182766
1975,0.18359
1973,0.184173
1971,0.18495
1969,0.185703
1967,0.18631
1965,0.187148
1963,0.187798
1961,0.188573
1959,0.189099
1957,0.189699
1955,0.190493
1953,0.191175
1951,0.191908
1949,0.192562
1947,0.193162
1945,0.19399
1943,0.194605
1941,0.195242
1939,0.196104
1937,0.196867
1935,0.197372
1933,0.198183
1931,0.198804
1929,0.199715
1927,0.200394
1925,0.200912
1923,0.201721
1921,0.202184
1919,0.203458
1917,0.20378
1915,0.204538
1913,0.205424
1911,0.206116
1909,0.206822
1907,0.20719
1905,0.208472
1903,0.208921
1901,0.209395
1899,0.210608
1897,0.21104
1895,0.211609
1893,0.212476
1891,0.212947
1889,0.213864
1887,0.214366
1885,0.214959
1883,0.215746
1881,0.216261
1879,0.216754
1877,0.217451
1875,0.217731
1873,0.218675
1871,0.219152
1869,0.219379
1867,0.220546
1865,0.220558
1863,0.221076
1861,0.221202
1859,0.221926
1857,0.222282
1855,0.222305
1853,0.223224
1851,0.222958
1849,0.223104
1847,0.224202
1845,0.223709
1843,0.223712
1841,0.224283
1839,0.224276
1837,0.22442
1835,0.224619
1833,0.224295
1831,0.224333
1829,0.22451
1827,0.224224
1825,0.224093
1823,0.223928
1821,0.224032
1819,0.223533
1817,0.223337
1815,0.223272
1813,0.222789
1811,0.222617
1809,0.222246
1807,0.221911
1805,0.221601
1803,0.221036
1801,0.2208
1799,0.220203
1797,0.219821
1795,0.219366
1793,0.218881
1791,0.218362
1789,0.217793
1787,0.217344
1785,0.21672
1783,0.216131
1781,0.21564
1779,0.215034
1777,0.214449
1775,0.213873
1773,0.213202
1771,0.21264
1769,0.211989
1767,0.211472
1765,0.210798
1763,0.210083
1761,0.209465
1759,0.208915
1757,0.208302
1755,0.207647
1753,0.207069
1751,0.206346
1749,0.205597
1747,0.205092
1745,0.204451
1743,0.203685
1741,0.203084
1739,0.20239
1737,0.201781
1735,0.201121
1733,0.200285
1731,0.199761
1729,0.199045
1727,0.198266
1725,0.197584
1723,0.196902
1721,0.19622
1719,0.195388
1717,0.194687
1715,0.193981
1713,0.193172
1711,0.192391
1709,0.191599
1707,0.190889
1705,0.19006
1703,0.189196
1701,0.188483
1699,0.187687
1697,0.186809
1695,0.186027
1693,0.185186
1691,0.184406
1689,0.183559
1687,0.18277
1685,0.181876
1683,0.18106
1681,0.180295
1679,0.17942
1677,0.178568
1675,0.177813
1673,0.176986
1671,0.176277
1669,0.175517
1667,0.174689
1665,0.17392
1663,0.172991
1661,0.172218
1659,0.171478
1657,0.170629
1655,0.16986
1653,0.169079
1651,0.168342
1649,0.167419
1647,0.166677
1645,0.165936
1643,0.165114
1641,0.164392
1639,0.163572
1637,0.162816
1635,0.162085
1633,0.161267
1631,0.160462
1629,0.15983
1627,0.159032
1625,0.158407
1623,0.157535
1621,0.156892
1619,0.156157
1617,0.155494
1615,0.154815
1613,0.154076
1611,0.153523
1609,0.152752
1607,0.152212
1605,0.151512
1603,0.150941
1601,0.150384
1599,0.149826
1597,0.149192
1595,0.148722
1593,0.148172
1591,0.147628
1589,0.14724
1587,0.146586
1585,0.146221
1583,0.145757
1581,0.145336
1579,0.144946
1577,0.144474
1575,0.144105
1573,0.143683
1571,0.143206
1569,0.142946
1567,0.142542
1565,0.142215
1563,0.141842
1561,0.141552
1559,0.141285
1557,0.140891
1555,0.140592
1553,0.14036
1551,0.139984
1549,0.139747
1547,0.139513
1545,0.139239
1543,0.13901
1541,0.13869
1539,0.138471
1537,0.138265
1535,0.138063
1533,0.137931
1531,0.137594
1529,0.137466
1527,0.137281
1525,0.137034
1523,0.13689
1521,0.136754
1519,0.136551
1517,0.136369
1515,0.136198
1513,0.136076
1511,0.135932
1509,0.135786
1507,0.135643
1505,0.135469
1503,0.135412
1501,0.135239
1499,0.135128
1497,0.135063
1495,0.134866
1493,0.134825
1491,0.134657
1489,0.134573
1487,0.13453
1485,0.134357
1483,0.13436
1481,0.134261
1479,0.134162
1477,0.134059
1475,0.133967
1473,0.133904
1471,0.133841
1469,0.133786
1467,0.133727
1465,0.133652
1463,0.133589
1461,0.133485
1459,0.133425
1457,0.133392
1455,0.133345
1453,0.133194
1451,0.133177
1449,0.133154
1447,0.133086
1445,0.133016
1443,0.133005
1441,0.132873
1439,0.132779
1437,0.132867
1435,0.132727
1433,0.132719
1431,0.132693
1429,0.132579
1427,0.132577
1425,0.13249
1423,0.1325
1421,0.132407
1419,0.132368
1417,0.132358
1415,0.132306
1413,0.132242
1411,0.132117
1409,0.132156
1407,0.132106
1405,0.13207
1403,0.131975
1401,0.132068
1399,0.131949
1397,0.131856
1395,0.131937
1393,0.131809
1391,0.131749
1389,0.131706
1387,0.131622
1385,0.131596
1383,0.131692
1381,0.131633
1379,0.131498
1377,0.131487
1375,0.131378
1373,0.131199
1371,0.131251
1369,0.131145
1367,0.131194
1365,0.131093
1363,0.13103
1361,0.131156
1359,0.131024
1357,0.130951
1355,0.130944
1353,0.130988
1351,0.130945
1349,0.130894
1347,0.130876
1345,0.130871
1343,0.130827
1341,0.130818
1339,0.130824
1337,0.130847
1335,0.130853
1333,0.130851
1331,0.130885
1329,0.130898
1327,0.130933
1325,0.130937
1323,0.130939
1321,0.130985
1319,0.131019
1317,0.131047
1315,0.131085
1313,0.131169
1311,0.131207
1309,0.131271
1307,0.131323
1305,0.131415
1303,0.131439
1301,0.131585
1299,0.131659
1297,0.131724
1295,0.131867
1293,0.131869
1291,0.131996
1289,0.132179
1287,0.132274
1285,0.132388
1283,0.132495
1281,0.13269
1279,0.132823
1277,0.132948
1275,0.133113
1273,0.133299
1271,0.13351
1269,0.133739
1267,0.133864
1265,0.134065
1263,0.134322
1261,0.134504
1259,0.134764
1257,0.135019
1255,0.135278
1253,0.135515
1251,0.135797
1249,0.136073
1247,0.136387
1245,0.136667
1243,0.136954
1241,0.137281
1239,0.137594
1237,0.137916
1235,0.138185
1233,0.13865
1231,0.13893
1229,0.139356
1227,0.139751
1225,0.140073
1223,0.140497
1221,0.140882
1219,0.14129
1217,0.141808
1215,0.142227
1213,0.142706
1211,0.143184
1209,0.143626
1207,0.144219
1205,0.144717
1203,0.145186
1201,0.145819
1199,0.146138
1197,0.14668
1195,0.147288
1193,0.147917
1191,0.148439
1189,0.14908
1187,0.149704
1185,0.150286
1183,0.150938
1181,0.151553
1179,0.152197
1177,0.152858
1175,0.153466
1173,0.154144
1171,0.154752
1169,0.155402
1167,0.156066
1165,0.156668
1163,0.157391
1161,0.158035
1159,0.158669
1157,0.159387
1155,0.160035
1153,0.160756
1151,0.161469
1149,0.162201
1147,0.163009
1145,0.163773
1143,0.1646
1141,0.165468
1139,0.166348
1137,0.167267
1135,0.168254
1133,0.169283
1131,0.17026
1129,0.171314
1127,0.17238
1125,0.173516
1123,0.174615
1121,0.175723
1119,0.176883
1117,0.177994
1115,0.179069
1113,0.180255
1111,0.181314
1109,0.182419
1107,0.183475
1105,0.184451
1103,0.185405
1101,0.186339
1099,0.187159
1097,0.18793
1095,0.188629
1093,0.189315
1091,0.189887
1089,0.190364
1087,0.190882
1085,0.19127
1083,0.191681
1081,0.192096
1079,0.192385
1077,0.192767
1075,0.193071
1073,0.193508
1071,0.193923
1069,0.19429
1067,0.194777
1065,0.195269
1063,0.195784
1061,0.196446
1059,0.197039
1057,0.197706
1055,0.198402
1053,0.199116
1051,0.199928
1049,0.200638
1047,0.20139
1045,0.202151
1043,0.202815
1041,0.203566
1039,0.204123
1037,0.204722
1035,0.205266
1033,0.205635
1031,0.206021
1029,0.206289
1027,0.206458
1025,0.206648
1023,0.206588
1021,0.206563
1019,0.206462
1017,0.206266
1015,0.20602
1013,0.205667
1011,0.205416
1009,0.204967
1007,0.204531
1005,0.204145
1003,0.203638
1001,0.203097
999,0.202627
997,0.20199
995,0.201398
993,0.200756
991,0.200029
989,0.199318
987,0.198685
985,0.197884
983,0.197157
981,0.196399
979,0.195726
977,0.194948
975,0.194361
973,0.193704
971,0.193043
969,0.192429
967,0.191834
965,0.191297
963,0.190753
961,0.190179
959,0.189625
957,0.18906
955,0.188467
953,0.187831
951,0.187162
949,0.186414
947,0.185822
945,0.18517
943,0.184333
941,0.183515
939,0.182927
937,0.182045
935,0.181385
933,0.180544
931,0.179893
929,0.179085
927,0.178283
925,0.177487
923,0.17665
921,0.175887
919,0.175131
917,0.17438
915,0.173479
913,0.172645
911,0.171983
909,0.17126
907,0.170613
905,0.169842
903,0.169068
901,0.168325
899,0.166758
897,0.16644
895,0.1691
893,0.158115
891,0.167885
889,0.167405
887,0.168383
885,0.166613
883,0.165955
881,0.163234
879,0.162881
877,0.165497
875,0.161013
873,0.164088
871,0.164384
869,0.159868
867,0.16043
865,0.161914
863,0.161176
861,0.161482
859,0.160101
857,0.162074
855,0.159272
853,0.16073
851,0.160717
849,0.159383
847,0.160109
845,0.159459
843,0.159742
841,0.159531
839,0.158734
837,0.159301
835,0.159021
833,0.159249
831,0.158736
829,0.159292
827,0.159284
825,0.159877
823,0.159639
821,0.15989
819,0.159983
817,0.160751
815,0.161359
813,0.16094
811,0.162137
809,0.1624
807,0.162961
805,0.163201
803,0.16327
801,0.164061
799,0.164212
797,0.165358
795,0.165494
793,0.165717
791,0.166561
789,0.166828
787,0.167473
785,0.167652
783,0.168187
781,0.168939
779,0.168957
777,0.169918
775,0.170452
773,0.171276
771,0.172236
769,0.172787
767,0.173811
765,0.174695
763,0.176057
761,0.176544
759,0.177885
757,0.178909
755,0.180087
753,0.1809
751,0.181559
749,0.182678
747,0.183334
745,0.1839
743,0.184347
741,0.184827
739,0.185265
737,0.185653
735,0.18578
733,0.185559
731,0.185887
729,0.186084
727,0.18624
725,0.186468
723,0.186655
721,0.186969
719,0.187198
717,0.18735
715,0.187823
713,0.188188
711,0.188787
709,0.189177
707,0.189283
705,0.189417
703,0.18975
701,0.18983
699,0.189717
697,0.189601
695,0.189378
693,0.189128
691,0.188952
689,0.188562
687,0.188162
685,0.187852
683,0.187468
681,0.187057
679,0.186882
677,0.186433
675,0.18611
673,0.185798
671,0.185364
669,0.184987
667,0.184574
665,0.184208
663,0.1838
661,0.183587
659,0.183273
657,0.182992
655,0.18293
653,0.182715
651,0.182424
649,0.182159
647,0.181976
645,0.181606
643,0.181534
641,0.180928
639,0.180822
637,0.180373
635,0.180087
633,0.179925
631,0.179626
629,0.179417
627,0.179201
625,0.179106
623,0.178953
621,0.178841
619,0.178702
617,0.178757
615,0.178858
613,0.178758
611,0.178941
609,0.179039
607,0.179302
605,0.179556
603,0.180063
601,0.180622
599,0.181097
597,0.181483
595,0.182004
593,0.182659
591,0.182918
589,0.183282
587,0.183514
585,0.183796
583,0.183959
581,0.184104
579,0.184439
577,0.184563
575,0.184964
573,0.185411
571,0.186082
569,0.186851
567,0.18785
565,0.18875
563,0.189847
561,0.190695
559,0.19164
557,0.192178
555,0.192626
553,0.193066
551,0.192643
549,0.192786
547,0.192204
545,0.191952
543,0.191705
541,0.191631
539,0.191748
537,0.192328
535,0.19297
533,0.193527
531,0.194565
529,0.195229
527,0.196119
525,0.196773
523,0.197325
521,0.197501
519,0.198057
517,0.197923
515,0.198075
513,0.198105
511,0.198603
509,0.19889
507,0.19929
505,0.20013
503,0.200932
501,0.201977
499,0.203215
497,0.204375
495,0.205346
493,0.206195
491,0.206345
489,0.206117
487,0.205701
485,0.204806
483,0.204525
481,0.20401
479,0.203866
477,0.204272
475,0.205021
473,0.206074
471,0.207289
469,0.208317
467,0.209204
465,0.209159
463,0.209038
461,0.208458
459,0.207656
457,0.207106
455,0.207001
453,0.206942
451,0.207397
449,0.208217
447,0.209011
445,0.209816
443,0.210908
441,0.211708
439,0.212216
437,0.21244
435,0.213144
433,0.213706
431,0.214151
429,0.214546
427,0.215906
425,0.216588
423,0.217537
421,0.218401
419,0.219354
417,0.218939
415,0.219211
413,0.219741
411,0.220012
409,0.221342
407,0.222309
405,0.223567
403,0.225288
401,0.225833
399,0.227443
397,0.228264
395,0.228198
393,0.229133
391,0.229501
389,0.230622
387,0.231554
385,0.232309
383,0.233927
381,0.235347
379,0.236792
377,0.238597
375,0.239947
373,0.241885
371,0.243629
369,0.244776
367,0.245817
365,0.247235
363,0.247459
361,0.249118
359,0.250739
357,0.253083
355,0.255295
353,0.257433
351,0.259597
349,0.258947
347,0.26059
345,0.26291
343,0.264503
341,0.266273
339,0.268161
337,0.271434
335,0.274094
333,0.275773
331,0.27749
329,0.279866
327,0.282694
325,0.285406
323,0.288498
321,0.292581
319,0.29511
317,0.298933
315,0.30226
313,0.306588
311,0.309762
309,0.31414
307,0.319207
305,0.324174
303,0.328592
301,0.333019
299,0.337606
297,0.34242
295,0.347715
293,0.353742
291,0.358557
289,0.363751
287,0.369333
285,0.374172
283,0.378748
281,0.382842
279,0.386602
277,0.390579
275,0.39231
273,0.394161
271,0.394982
269,0.394581
267,0.394293
265,0.392968
263,0.391339
261,0.388367
259,0.386019
257,0.382837
255,0.37939
253,0.37487
251,0.369981
249,0.364079
247,0.357692
245,0.350239
243,0.341436
241,0.334597
239,0.326917
237,0.32023
235,0.314051
233,0.30875
231,0.304984
229,0.301788
227,0.299421
225,0.300242
223,0.306412
221,0.31893
219,0.34256
217,0.375853
215,0.418886
213,0.466015
211,0.51047
209,0.546537
207,0.568538
205,0.578222
203,0.57371
201,0.5585
200,0.54819