File: AbsorptionAnalysis/AbsorptionBGSubstraction_Pfolh2017/DodecaneCryostatFilm/Dodecane_KIT_Vac_140.txt
Dodecane_KIT_Vac_140
Wavelength (nm),Abs
2655,0.0757061
2653,0.0780305
2651,0.0778598
2649,0.0780084
2647,0.0791155
2645,0.0799299
2643,0.0785053
2641,0.0788233
2639,0.0793138
2637,0.0788972
2635,0.0776003
2633,0.0798273
2631,0.0736964
2629,0.0791977
2627,0.0787161
2625,0.0788119
2623,0.0786732
2621,0.0762307
2619,0.0794148
2617,0.0750207
2615,0.0788205
2613,0.079859
2611,0.0788293
2609,0.0800012
2607,0.0792507
2605,0.0781577
2603,0.078527
2601,0.0798491
2599,0.0791138
2597,0.0767776
2595,0.075718
2593,0.0801146
2591,0.0796336
2589,0.0771282
2587,0.0823164
2585,0.076571
2583,0.0812495
2581,0.0795422
2579,0.0794254
2577,0.0815014
2575,0.0805277
2573,0.0807831
2571,0.0802442
2569,0.0797538
2567,0.0804513
2565,0.0803887
2563,0.0780266
2561,0.0805047
2559,0.0813526
2557,0.0806685
2555,0.0805767
2553,0.0800674
2551,0.0806591
2549,0.0804445
2547,0.081051
2545,0.0813506
2543,0.0807365
2541,0.0807369
2539,0.0812128
2537,0.0800525
2535,0.0810554
2533,0.0805655
2531,0.0810624
2529,0.0814418
2527,0.0812792
2525,0.0815761
2523,0.0818755
2521,0.0817137
2519,0.0817388
2517,0.0815592
2515,0.081915
2513,0.0816654
2511,0.0818278
2509,0.0816127
2507,0.0820468
2505,0.0816454
2503,0.0823816
2501,0.0821598
2499,0.0820394
2497,0.0823233
2495,0.0823114
2493,0.0823917
2491,0.0823337
2489,0.0824946
2487,0.0826178
2485,0.0827734
2483,0.0826236
2481,0.0826862
2479,0.0827172
2477,0.0831698
2475,0.0829045
2473,0.082902
2471,0.0832904
2469,0.0828613
2467,0.083507
2465,0.0832791
2463,0.083278
2461,0.0834284
2459,0.0835303
2457,0.0836361
2455,0.0837362
2453,0.0835689
2451,0.0839921
2449,0.0839015
2447,0.0841108
2445,0.0841792
2443,0.0840042
2441,0.0842836
2439,0.0842975
2437,0.0842717
2435,0.0847993
2433,0.0844381
2431,0.0845526
2429,0.0849603
2427,0.0847291
2425,0.0850753
2423,0.0850382
2421,0.0848854
2419,0.0853007
2417,0.0852942
2415,0.0852058
2413,0.0855861
2411,0.085492
2409,0.0856205
2407,0.0859852
2405,0.0859482
2403,0.085941
2401,0.0861811
2399,0.0861585
2397,0.0862315
2395,0.0867185
2393,0.0864788
2391,0.0867982
2389,0.0870149
2387,0.086858
2385,0.0871833
2383,0.087288
2381,0.0873097
2379,0.087642
2377,0.0875373
2375,0.0879367
2373,0.0880051
2371,0.0879477
2369,0.0882494
2367,0.0883481
2365,0.0886085
2363,0.0886081
2361,0.0888555
2359,0.0889817
2357,0.0891982
2355,0.0895388
2353,0.0894749
2351,0.0897765
2349,0.0898485
2347,0.0901768
2345,0.0901548
2343,0.0904687
2341,0.0907175
2339,0.0906576
2337,0.0911214
2335,0.0912186
2333,0.0913898
2331,0.0914767
2329,0.0918251
2327,0.0919863
2325,0.0920836
2323,0.0926439
2321,0.0924645
2319,0.0928487
2317,0.0929794
2315,0.0934289
2313,0.0933438
2311,0.093747
2309,0.0939312
2307,0.0942853
2305,0.094448
2303,0.0949031
2301,0.0948774
2299,0.0951384
2297,0.0952969
2295,0.0957804
2293,0.095784
2291,0.0960987
2289,0.0965523
2287,0.0965393
2285,0.0968198
2283,0.0974134
2281,0.0974534
2279,0.0976266
2277,0.0977336
2275,0.098465
2273,0.0988265
2271,0.0990716
2269,0.0992401
2267,0.0998222
2265,0.099472
2263,0.0999591
2261,0.10008
2259,0.100929
2257,0.100802
2255,0.100911
2253,0.101652
2251,0.101867
2249,0.102221
2247,0.102011
2245,0.102968
2243,0.103205
2241,0.103447
2239,0.103827
2237,0.104011
2235,0.104466
2233,0.1045
2231,0.105354
2229,0.105352
2227,0.105929
2225,0.106144
2223,0.106485
2221,0.107206
2219,0.107348
2217,0.107731
2215,0.108171
2213,0.108648
2211,0.109291
2209,0.109317
2207,0.109867
2205,0.110352
2203,0.110544
2201,0.111245
2199,0.11112
2197,0.111704
2195,0.112311
2193,0.112477
2191,0.112658
2189,0.113377
2187,0.113626
2185,0.114129
2183,0.114611
2181,0.114718
2179,0.115317
2177,0.116039
2175,0.11621
2173,0.116903
2171,0.117289
2169,0.117737
2167,0.118217
2165,0.118724
2163,0.119127
2161,0.119501
2159,0.120124
2157,0.120637
2155,0.121139
2153,0.121548
2151,0.122058
2149,0.122588
2147,0.123156
2145,0.123648
2143,0.123931
2141,0.124718
2139,0.125244
2137,0.125675
2135,0.126228
2133,0.126863
2131,0.127285
2129,0.127784
2127,0.128317
2125,0.128853
2123,0.129551
2121,0.130176
2119,0.130632
2117,0.131331
2115,0.131845
2113,0.132549
2111,0.133059
2109,0.133749
2107,0.134493
2105,0.134921
2103,0.135651
2101,0.136284
2099,0.1369
2097,0.137557
2095,0.138219
2093,0.138758
2091,0.139645
2089,0.140278
2087,0.14095
2085,0.141513
2083,0.142379
2081,0.143074
2079,0.143758
2077,0.144438
2075,0.145131
2073,0.145885
2071,0.146638
2069,0.14746
2067,0.148305
2065,0.148866
2063,0.149611
2061,0.150471
2059,0.151159
2057,0.151982
2055,0.152804
2053,0.15361
2051,0.15416
2049,0.154959
2047,0.155725
2045,0.156648
2043,0.157417
2041,0.158339
2039,0.159119
2037,0.159783
2035,0.160653
2033,0.161537
2031,0.162256
2029,0.16306
2027,0.163735
2025,0.164642
2023,0.165392
2021,0.166287
2019,0.16719
2017,0.167857
2015,0.168805
2013,0.169574
2011,0.170371
2009,0.171103
2007,0.171881
2005,0.172701
2003,0.173322
2001,0.174215
1999,0.175091
1997,0.175927
1995,0.176698
1993,0.177545
1991,0.178142
1989,0.17896
1987,0.179734
1985,0.180405
1983,0.181098
1981,0.181946
1979,0.182643
1977,0.183362
1975,0.184114
1973,0.184813
1971,0.18555
1969,0.186276
1967,0.186811
1965,0.187653
1963,0.188267
1961,0.189075
1959,0.189672
1957,0.190511
1955,0.191072
1953,0.191792
1951,0.192434
1949,0.193202
1947,0.193838
1945,0.194611
1943,0.195331
1941,0.195888
1939,0.196728
1937,0.197449
1935,0.197991
1933,0.198789
1931,0.19944
1929,0.200339
1927,0.201154
1925,0.201569
1923,0.202416
1921,0.202965
1919,0.204045
1917,0.204437
1915,0.205255
1913,0.206098
1911,0.206867
1909,0.207433
1907,0.207885
1905,0.209229
1903,0.209734
1901,0.210091
1899,0.211328
1897,0.211957
1895,0.212345
1893,0.213197
1891,0.213591
1889,0.214626
1887,0.215097
1885,0.215581
1883,0.21656
1881,0.217068
1879,0.217499
1877,0.218127
1875,0.218502
1873,0.219242
1871,0.219822
1869,0.220244
1867,0.221324
1865,0.221229
1863,0.221722
1861,0.221848
1859,0.222764
1857,0.223045
1855,0.223034
1853,0.224012
1851,0.223717
1849,0.223802
1847,0.224859
1845,0.224482
1843,0.224355
1841,0.225013
1839,0.225025
1837,0.225118
1835,0.225326
1833,0.224973
1831,0.225049
1829,0.225187
1827,0.22484
1825,0.22485
1823,0.224708
1821,0.22475
1819,0.224321
1817,0.223962
1815,0.223939
1813,0.223489
1811,0.223203
1809,0.222957
1807,0.222566
1805,0.222168
1803,0.221721
1801,0.221405
1799,0.220793
1797,0.220354
1795,0.219799
1793,0.21946
1791,0.218894
1789,0.218407
1787,0.217863
1785,0.217258
1783,0.216642
1781,0.21613
1779,0.215583
1777,0.215012
1775,0.214344
1773,0.213783
1771,0.213151
1769,0.212499
1767,0.211983
1765,0.211272
1763,0.21058
1761,0.209939
1759,0.209292
1757,0.208767
1755,0.208037
1753,0.207356
1751,0.206778
1749,0.206071
1747,0.205398
1745,0.204744
1743,0.204039
1741,0.203403
1739,0.202741
1737,0.202104
1735,0.201478
1733,0.200642
1731,0.20006
1729,0.1993
1727,0.198566
1725,0.197847
1723,0.197183
1721,0.196457
1719,0.195689
1717,0.19487
1715,0.194175
1713,0.193408
1711,0.192552
1709,0.191861
1707,0.191079
1705,0.190204
1703,0.18938
1701,0.188691
1699,0.187836
1697,0.186985
1695,0.186245
1693,0.185425
1691,0.184601
1689,0.18376
1687,0.182855
1685,0.181997
1683,0.181254
1681,0.180511
1679,0.179533
1677,0.178762
1675,0.177932
1673,0.177066
1671,0.176366
1669,0.175591
1667,0.174755
1665,0.173997
1663,0.173083
1661,0.172249
1659,0.171514
1657,0.170694
1655,0.169952
1653,0.169134
1651,0.168358
1649,0.167528
1647,0.166723
1645,0.165995
1643,0.165141
1641,0.164407
1639,0.163599
1637,0.162798
1635,0.162116
1633,0.161255
1631,0.160479
1629,0.159764
1627,0.159064
1625,0.158413
1623,0.157537
1621,0.156865
1619,0.156161
1617,0.155446
1615,0.154814
1613,0.154023
1611,0.153411
1609,0.15282
1607,0.152196
1605,0.151465
1603,0.150926
1601,0.150316
1599,0.149798
1597,0.149143
1595,0.148657
1593,0.148112
1591,0.147577
1589,0.14712
1587,0.146594
1585,0.146166
1583,0.145697
1581,0.145285
1579,0.144851
1577,0.144407
1575,0.144027
1573,0.143581
1571,0.14323
1569,0.142866
1567,0.142508
1565,0.14217
1563,0.141813
1561,0.141497
1559,0.141183
1557,0.140843
1555,0.140525
1553,0.140257
1551,0.139961
1549,0.139701
1547,0.139408
1545,0.139181
1543,0.13892
1541,0.13859
1539,0.138453
1537,0.138203
1535,0.13802
1533,0.137826
1531,0.137565
1529,0.137415
1527,0.137173
1525,0.136968
1523,0.136845
1521,0.136644
1519,0.136452
1517,0.136327
1515,0.136143
1513,0.136074
1511,0.135842
1509,0.135724
1507,0.135604
1505,0.135402
1503,0.135366
1501,0.135168
1499,0.135111
1497,0.134963
1495,0.134827
1493,0.134743
1491,0.134626
1489,0.134482
1487,0.134484
1485,0.134294
1483,0.134266
1481,0.134198
1479,0.13413
1477,0.134044
1475,0.133958
1473,0.133924
1471,0.133781
1469,0.133717
1467,0.13363
1465,0.133635
1463,0.133562
1461,0.133449
1459,0.133392
1457,0.133281
1455,0.133282
1453,0.133165
1451,0.133106
1449,0.133083
1447,0.133042
1445,0.132984
1443,0.132918
1441,0.132871
1439,0.132775
1437,0.132773
1435,0.132701
1433,0.132659
1431,0.132624
1429,0.132489
1427,0.132515
1425,0.132402
1423,0.132425
1421,0.132304
1419,0.13229
1417,0.132239
1415,0.13223
1413,0.132188
1411,0.132062
1409,0.132066
1407,0.132041
1405,0.131963
1403,0.131906
1401,0.131984
1399,0.131878
1397,0.131786
1395,0.131848
1393,0.13173
1391,0.131676
1389,0.131596
1387,0.131549
1385,0.131479
1383,0.131555
1381,0.131575
1379,0.131402
1377,0.131452
1375,0.131329
1373,0.131175
1371,0.131224
1369,0.131135
1367,0.131157
1365,0.131043
1363,0.130975
1361,0.131139
1359,0.130959
1357,0.130908
1355,0.130881
1353,0.130915
1351,0.130864
1349,0.130834
1347,0.13082
1345,0.1308
1343,0.130764
1341,0.13081
1339,0.13082
1337,0.130825
1335,0.130802
1333,0.130835
1331,0.13082
1329,0.13083
1327,0.1309
1325,0.130884
1323,0.130894
1321,0.130933
1319,0.130975
1317,0.130987
1315,0.131092
1313,0.131077
1311,0.131146
1309,0.131234
1307,0.131256
1305,0.131308
1303,0.131429
1301,0.131522
1299,0.131549
1297,0.131657
1295,0.131773
1293,0.13184
1291,0.131919
1289,0.132082
1287,0.132182
1285,0.132299
1283,0.132476
1281,0.132645
1279,0.132739
1277,0.132916
1275,0.133059
1273,0.133262
1271,0.133501
1269,0.133666
1267,0.133823
1265,0.13404
1263,0.134278
1261,0.134487
1259,0.134711
1257,0.13497
1255,0.135264
1253,0.135471
1251,0.13577
1249,0.136053
1247,0.136317
1245,0.136635
1243,0.136963
1241,0.13723
1239,0.137566
1237,0.137886
1235,0.138174
1233,0.138614
1231,0.13891
1229,0.139329
1227,0.139707
1225,0.140028
1223,0.140467
1221,0.140836
1219,0.141309
1217,0.141766
1215,0.142203
1213,0.142723
1211,0.143179
1209,0.143646
1207,0.144206
1205,0.144671
1203,0.145176
1201,0.145806
1199,0.14613
1197,0.146723
1195,0.147294
1193,0.14793
1191,0.148439
1189,0.149094
1187,0.149688
1185,0.150312
1183,0.150977
1181,0.151557
1179,0.152247
1177,0.152878
1175,0.153475
1173,0.154132
1171,0.154781
1169,0.155421
1167,0.156079
1165,0.156686
1163,0.157429
1161,0.158035
1159,0.158697
1157,0.15943
1155,0.160074
1153,0.160796
1151,0.161489
1149,0.162224
1147,0.163026
1145,0.163785
1143,0.164665
1141,0.165474
1139,0.166352
1137,0.167291
1135,0.168282
1133,0.169301
1131,0.170317
1129,0.171355
1127,0.172376
1125,0.173525
1123,0.174653
1121,0.175744
1119,0.176922
1117,0.178061
1115,0.17913
1113,0.18031
1111,0.181376
1109,0.18243
1107,0.183533
1105,0.18449
1103,0.185439
1101,0.18638
1099,0.187212
1097,0.188031
1095,0.188696
1093,0.189378
1091,0.189963
1089,0.190475
1087,0.19095
1085,0.19134
1083,0.191751
1081,0.192173
1079,0.192486
1077,0.19278
1075,0.193153
1073,0.193547
1071,0.193913
1069,0.194334
1067,0.194806
1065,0.195281
1063,0.195837
1061,0.196421
1059,0.197015
1057,0.19766
1055,0.198418
1053,0.199111
1051,0.19992
1049,0.20062
1047,0.201411
1045,0.202154
1043,0.202836
1041,0.203565
1039,0.204153
1037,0.204793
1035,0.205274
1033,0.205682
1031,0.206074
1029,0.206302
1027,0.206498
1025,0.206688
1023,0.206637
1021,0.206576
1019,0.206444
1017,0.206285
1015,0.206006
1013,0.205698
1011,0.20541
1009,0.205006
1007,0.204573
1005,0.204145
1003,0.203612
1001,0.203083
999,0.202536
997,0.201986
995,0.201402
993,0.200713
991,0.20001
989,0.199323
987,0.198637
985,0.197911
983,0.197126
981,0.196387
979,0.195629
977,0.19496
975,0.194324
973,0.193667
971,0.192979
969,0.192435
967,0.191791
965,0.191195
963,0.19061
961,0.190082
959,0.189563
957,0.188964
955,0.188414
953,0.187722
951,0.187105
949,0.186435
947,0.185769
945,0.185056
943,0.18417
941,0.183482
939,0.182839
937,0.181939
935,0.181213
933,0.180575
931,0.179794
929,0.178983
927,0.178119
925,0.177402
923,0.176632
921,0.175734
919,0.17501
917,0.174173
915,0.173457
913,0.172602
911,0.171871
909,0.171015
907,0.1706
905,0.169471
903,0.168991
901,0.168127
899,0.165459
897,0.163275
895,0.172254
893,0.161491
891,0.162127
889,0.168153
887,0.16529
885,0.164989
883,0.169301
881,0.160658
879,0.165768
877,0.165624
875,0.162362
873,0.160589
871,0.164691
869,0.161104
867,0.159378
865,0.162187
863,0.162078
861,0.161948
859,0.161273
857,0.161543
855,0.158903
853,0.159679
851,0.159871
849,0.159886
847,0.159478
845,0.159259
843,0.159517
841,0.159205
839,0.158536
837,0.158636
835,0.158671
833,0.158697
831,0.158596
829,0.159275
827,0.158845
825,0.159433
823,0.15983
821,0.159931
819,0.159661
817,0.160897
815,0.161036
813,0.161132
811,0.161763
809,0.162534
807,0.162776
805,0.163453
803,0.163028
801,0.164027
799,0.16415
797,0.165236
795,0.165467
793,0.165509
791,0.166574
789,0.167013
787,0.167641
785,0.167763
783,0.168038
781,0.16864
779,0.16912
777,0.169957
775,0.17058
773,0.171082
771,0.171843
769,0.172869
767,0.173845
765,0.174445
763,0.175866
761,0.176714
759,0.177863
757,0.178779
755,0.180107
753,0.180786
751,0.181546
749,0.182378
747,0.183281
745,0.184002
743,0.184776
741,0.184828
739,0.185467
737,0.185775
735,0.185802
733,0.185744
731,0.185813
729,0.186066
727,0.186162
725,0.186327
723,0.186661
721,0.186807
719,0.187095
717,0.187478
715,0.187731
713,0.188311
711,0.188628
709,0.188941
707,0.189371
705,0.189416
703,0.189584
701,0.189844
699,0.18969
697,0.189624
695,0.189409
693,0.18921
691,0.188873
689,0.188614
687,0.188213
685,0.18795
683,0.1876
681,0.187227
679,0.187122
677,0.186398
675,0.186122
673,0.185761
671,0.18536
669,0.185056
667,0.184577
665,0.18425
663,0.183898
661,0.183716
659,0.183291
657,0.183035
655,0.182952
653,0.182693
651,0.182381
649,0.182248
647,0.181998
645,0.181681
643,0.181559
641,0.180985
639,0.180845
637,0.180525
635,0.180304
633,0.179914
631,0.179539
629,0.179583
627,0.179318
625,0.179101
623,0.178981
621,0.178942
619,0.178704
617,0.178742
615,0.178759
613,0.178712
611,0.179044
609,0.179149
607,0.179245
605,0.179608
603,0.180113
601,0.180718
599,0.181083
597,0.181659
595,0.182065
593,0.182533
591,0.182965
589,0.183264
587,0.18357
585,0.18383
583,0.183965
581,0.184047
579,0.184328
577,0.18442
575,0.184932
573,0.185495
571,0.186104
569,0.186792
567,0.187785
565,0.188916
563,0.189832
561,0.190808
559,0.191553
557,0.192326
555,0.192709
553,0.192942
551,0.192823
549,0.192612
547,0.192454
545,0.191962
543,0.191789
541,0.191613
539,0.191834
537,0.192124
535,0.193042
533,0.193851
531,0.194525
529,0.195184
527,0.196022
525,0.19694
523,0.197247
521,0.197718
519,0.198081
517,0.197963
515,0.19821
513,0.198159
511,0.198537
509,0.198901
507,0.19928
505,0.20008
503,0.201132
501,0.201998
499,0.20345
497,0.204337
495,0.205448
493,0.206187
491,0.206311
489,0.206154
487,0.205725
485,0.205009
483,0.204407
481,0.203984
479,0.20397
477,0.204206
475,0.205018
473,0.206257
471,0.207395
469,0.208392
467,0.209083
465,0.209382
463,0.209252
461,0.208475
459,0.207658
457,0.207261
455,0.206988
453,0.206948
451,0.207517
449,0.208407
447,0.209129
445,0.209938
443,0.210837
441,0.211562
439,0.212256
437,0.212561
435,0.212814
433,0.213593
431,0.213976
429,0.214637
427,0.21599
425,0.216676
423,0.21792
421,0.218672
419,0.219135
417,0.21895
415,0.219307
413,0.220051
411,0.220225
409,0.221295
407,0.222348
405,0.223661
403,0.225032
401,0.226117
399,0.227495
397,0.228248
395,0.228455
393,0.228867
391,0.229711
389,0.230742
387,0.231433
385,0.232312
383,0.233968
381,0.235637
379,0.23711
377,0.238952
375,0.240134
373,0.241998
371,0.243661
369,0.244937
367,0.24606
365,0.247311
363,0.247714
361,0.249017
359,0.250862
357,0.253219
355,0.255908
353,0.257631
351,0.260087
349,0.259706
347,0.261221
345,0.263013
343,0.265026
341,0.266181
339,0.268181
337,0.271608
335,0.274084
333,0.275481
331,0.278653
329,0.280339
327,0.282639
325,0.285657
323,0.288922
321,0.292048
319,0.295927
317,0.29891
315,0.302177
313,0.306685
311,0.310056
309,0.313717
307,0.318997
305,0.323588
303,0.328399
301,0.333197
299,0.337425
297,0.341931
295,0.347395
293,0.353479
291,0.358774
289,0.363775
287,0.36967
285,0.37426
283,0.378784
281,0.382554
279,0.386597
277,0.390736
275,0.392342
273,0.393984
271,0.394873
269,0.394611
267,0.394246
265,0.393159
263,0.391099
261,0.389037
259,0.386392
257,0.382942
255,0.379309
253,0.374887
251,0.370228
249,0.364493
247,0.358063
245,0.350042
243,0.342216
241,0.334335
239,0.326985
237,0.320317
235,0.314571
233,0.308873
231,0.305234
229,0.301952
227,0.299693
225,0.300582
223,0.306322
221,0.319332
219,0.342088
217,0.375684
215,0.41872
213,0.46538
211,0.509934
209,0.546912
207,0.569072
205,0.578272
203,0.572924
201,0.559051
200,0.548309