File: AbsorptionAnalysis/AbsorptionBGSubstraction_Pfolh2017/DodecaneCryostatFilm/Dodecane_KIT_Vac_1175.txt
Dodecane_KIT_Vac_1175
Wavelength (nm),Abs
2655,0.0745261
2653,0.0752357
2651,0.076326
2649,0.0768266
2647,0.0769829
2645,0.0794339
2643,0.0774259
2641,0.0776463
2639,0.0776081
2637,0.0782187
2635,0.07478
2633,0.0781639
2631,0.0703133
2629,0.078008
2627,0.077948
2625,0.0777716
2623,0.0782663
2621,0.0731716
2619,0.0781223
2617,0.073403
2615,0.0779104
2613,0.0786271
2611,0.0770308
2609,0.0779143
2607,0.0798287
2605,0.0769822
2603,0.0773775
2601,0.0781798
2599,0.0773649
2597,0.0732452
2595,0.0706855
2593,0.0787355
2591,0.078139
2589,0.0764047
2587,0.0805264
2585,0.0751547
2583,0.0800653
2581,0.0782726
2579,0.078498
2577,0.0802937
2575,0.0794046
2573,0.0806998
2571,0.0789001
2569,0.0788936
2567,0.0793461
2565,0.0789211
2563,0.0773128
2561,0.0796601
2559,0.0802243
2557,0.0796707
2555,0.0795004
2553,0.0791112
2551,0.0796843
2549,0.0796015
2547,0.080175
2545,0.0799459
2543,0.0792463
2541,0.07963
2539,0.0803269
2537,0.0793173
2535,0.0799002
2533,0.0793649
2531,0.0797541
2529,0.0803212
2527,0.0804801
2525,0.0805499
2523,0.0807247
2521,0.0808457
2519,0.0808953
2517,0.0805686
2515,0.0807821
2513,0.0808891
2511,0.0809281
2509,0.0809643
2507,0.0806691
2505,0.0807954
2503,0.0814607
2501,0.0814963
2499,0.0811647
2497,0.0816256
2495,0.0813474
2493,0.0816124
2491,0.0816555
2489,0.0815848
2487,0.0818479
2485,0.0819483
2483,0.0818732
2481,0.0820477
2479,0.0819977
2477,0.0821743
2475,0.0820225
2473,0.0822671
2471,0.0825741
2469,0.0821664
2467,0.0826769
2465,0.0823321
2463,0.0825372
2461,0.0828295
2459,0.0827128
2457,0.0827837
2455,0.0829837
2453,0.0828045
2451,0.0832403
2449,0.0830797
2447,0.0833689
2445,0.0835663
2443,0.0832642
2441,0.083612
2439,0.0837161
2437,0.0836567
2435,0.0840324
2433,0.0837997
2431,0.0838242
2429,0.0842488
2427,0.0841615
2425,0.0842688
2423,0.0844285
2421,0.0841937
2419,0.0846563
2417,0.0846477
2415,0.0844547
2413,0.0850064
2411,0.0849743
2409,0.0849803
2407,0.0853751
2405,0.085284
2403,0.0853004
2401,0.0856161
2399,0.0855427
2397,0.085614
2395,0.0859815
2393,0.0858286
2391,0.0860805
2389,0.0863805
2387,0.086157
2385,0.0866603
2383,0.0866911
2381,0.0867376
2379,0.0871184
2377,0.0870014
2375,0.087277
2373,0.0874724
2371,0.0874249
2369,0.0877172
2367,0.0877816
2365,0.0880676
2363,0.0880152
2361,0.0883099
2359,0.0884099
2357,0.0885847
2355,0.0889039
2353,0.0889395
2351,0.0892083
2349,0.0893774
2347,0.0896356
2345,0.0895289
2343,0.0899038
2341,0.0902383
2339,0.0900839
2337,0.0904452
2335,0.0905116
2333,0.0908611
2331,0.0909271
2329,0.0912568
2327,0.0914842
2325,0.0914144
2323,0.0920336
2321,0.0919639
2319,0.0922351
2317,0.0923594
2315,0.0927317
2313,0.0927181
2311,0.0931743
2309,0.0933757
2307,0.0935879
2305,0.0938821
2303,0.0942088
2301,0.0943216
2299,0.0944012
2297,0.0946542
2295,0.0949319
2293,0.0951487
2291,0.0952165
2289,0.0959095
2287,0.0958976
2285,0.0961886
2283,0.0964954
2281,0.0969182
2279,0.096846
2277,0.0968209
2275,0.0976097
2273,0.0976816
2271,0.0981942
2269,0.0984674
2267,0.0992095
2265,0.0991485
2263,0.0992294
2261,0.0993513
2259,0.10012
2257,0.0999813
2255,0.10036
2253,0.100968
2251,0.101267
2249,0.101477
2247,0.101951
2245,0.102412
2243,0.102277
2241,0.102605
2239,0.103183
2237,0.103383
2235,0.103993
2233,0.104138
2231,0.104736
2229,0.104668
2227,0.105422
2225,0.105622
2223,0.105923
2221,0.106633
2219,0.106757
2217,0.107248
2215,0.107724
2213,0.108111
2211,0.108688
2209,0.108795
2207,0.109347
2205,0.109881
2203,0.110051
2201,0.110693
2199,0.110687
2197,0.111305
2195,0.111693
2193,0.111996
2191,0.112135
2189,0.112939
2187,0.113252
2185,0.113663
2183,0.113981
2181,0.114269
2179,0.114916
2177,0.11552
2175,0.11572
2173,0.116448
2171,0.116819
2169,0.117199
2167,0.117751
2165,0.118371
2163,0.118479
2161,0.118997
2159,0.119507
2157,0.120097
2155,0.120526
2153,0.120908
2151,0.121639
2149,0.122202
2147,0.122602
2145,0.123051
2143,0.123426
2141,0.124098
2139,0.12457
2137,0.125025
2135,0.125719
2133,0.126236
2131,0.126826
2129,0.127152
2127,0.127764
2125,0.128366
2123,0.128793
2121,0.129609
2119,0.130044
2117,0.130831
2115,0.131275
2113,0.13203
2111,0.132589
2109,0.133214
2107,0.133847
2105,0.134434
2103,0.134961
2101,0.135782
2099,0.136431
2097,0.136984
2095,0.137619
2093,0.138329
2091,0.139038
2089,0.139736
2087,0.14057
2085,0.140998
2083,0.141746
2081,0.142648
2079,0.143222
2077,0.14385
2075,0.144702
2073,0.145438
2071,0.146131
2069,0.147027
2067,0.147682
2065,0.148381
2063,0.149114
2061,0.149833
2059,0.150592
2057,0.151543
2055,0.152328
2053,0.153009
2051,0.153682
2049,0.154552
2047,0.155214
2045,0.156172
2043,0.157031
2041,0.157879
2039,0.158569
2037,0.159393
2035,0.160195
2033,0.160971
2031,0.161851
2029,0.162673
2027,0.163317
2025,0.164227
2023,0.165001
2021,0.165843
2019,0.166755
2017,0.167537
2015,0.168275
2013,0.168967
2011,0.169899
2009,0.170564
2007,0.171382
2005,0.172175
2003,0.173112
2001,0.173784
1999,0.174658
1997,0.17533
1995,0.176193
1993,0.177125
1991,0.177712
1989,0.178578
1987,0.179241
1985,0.179919
1983,0.180695
1981,0.181427
1979,0.182277
1977,0.182958
1975,0.183694
1973,0.18439
1971,0.185141
1969,0.185897
1967,0.186458
1965,0.1873
1963,0.187915
1961,0.188753
1959,0.189351
1957,0.190092
1955,0.190733
1953,0.191283
1951,0.191998
1949,0.192755
1947,0.193511
1945,0.194338
1943,0.194864
1941,0.195664
1939,0.196296
1937,0.197092
1935,0.197722
1933,0.198615
1931,0.199198
1929,0.199892
1927,0.200638
1925,0.201187
1923,0.202077
1921,0.202488
1919,0.203745
1917,0.204186
1915,0.204808
1913,0.205789
1911,0.206372
1909,0.207115
1907,0.207502
1905,0.209021
1903,0.209326
1901,0.209723
1899,0.211038
1897,0.211613
1895,0.211994
1893,0.212963
1891,0.213483
1889,0.214401
1887,0.214989
1885,0.215543
1883,0.216349
1881,0.216883
1879,0.217294
1877,0.218103
1875,0.21827
1873,0.219141
1871,0.219825
1869,0.220194
1867,0.221156
1865,0.221079
1863,0.221779
1861,0.221727
1859,0.222708
1857,0.222956
1855,0.223027
1853,0.223929
1851,0.223722
1849,0.223729
1847,0.224785
1845,0.224399
1843,0.224223
1841,0.224925
1839,0.22492
1837,0.22497
1835,0.225204
1833,0.225024
1831,0.225051
1829,0.225044
1827,0.224769
1825,0.224747
1823,0.224654
1821,0.224649
1819,0.22436
1817,0.223976
1815,0.22379
1813,0.223411
1811,0.223075
1809,0.22281
1807,0.222424
1805,0.221954
1803,0.221579
1801,0.221289
1799,0.220722
1797,0.220238
1795,0.219783
1793,0.219217
1791,0.218718
1789,0.218218
1787,0.217696
1785,0.217038
1783,0.216415
1781,0.215911
1779,0.215312
1777,0.214644
1775,0.214074
1773,0.213433
1771,0.212931
1769,0.212136
1767,0.21158
1765,0.210882
1763,0.210241
1761,0.209504
1759,0.208955
1757,0.208319
1755,0.207645
1753,0.206946
1751,0.206355
1749,0.205632
1747,0.204993
1745,0.20434
1743,0.203569
1741,0.202905
1739,0.202309
1737,0.201673
1735,0.200931
1733,0.2001
1731,0.199601
1729,0.198837
1727,0.198067
1725,0.197274
1723,0.196577
1721,0.195939
1719,0.195068
1717,0.194276
1715,0.193678
1713,0.192873
1711,0.192061
1709,0.191298
1707,0.190554
1705,0.18971
1703,0.188786
1701,0.188065
1699,0.187222
1697,0.186378
1695,0.1856
1693,0.184849
1691,0.183922
1689,0.183089
1687,0.182301
1685,0.181413
1683,0.180605
1681,0.179805
1679,0.178893
1677,0.178127
1675,0.177286
1673,0.176451
1671,0.175663
1669,0.174933
1667,0.174094
1665,0.173268
1663,0.172405
1661,0.171624
1659,0.170815
1657,0.170008
1655,0.169257
1653,0.168424
1651,0.167689
1649,0.16685
1647,0.166046
1645,0.165245
1643,0.164454
1641,0.163694
1639,0.162883
1637,0.162105
1635,0.161427
1633,0.160544
1631,0.159818
1629,0.159105
1627,0.158297
1625,0.157697
1623,0.156856
1621,0.156199
1619,0.155446
1617,0.154716
1615,0.154091
1613,0.15335
1611,0.152678
1609,0.152033
1607,0.151375
1605,0.150816
1603,0.150151
1601,0.149595
1599,0.149081
1597,0.148464
1595,0.147902
1593,0.14737
1591,0.146877
1589,0.146417
1587,0.145846
1585,0.145416
1583,0.144996
1581,0.144591
1579,0.144138
1577,0.14369
1575,0.143266
1573,0.142944
1571,0.142463
1569,0.142191
1567,0.141793
1565,0.141431
1563,0.141115
1561,0.140809
1559,0.140473
1557,0.140141
1555,0.139802
1553,0.139549
1551,0.139223
1549,0.139043
1547,0.13874
1545,0.138494
1543,0.138272
1541,0.137968
1539,0.13779
1537,0.137521
1535,0.137335
1533,0.137179
1531,0.136903
1529,0.136729
1527,0.136493
1525,0.136295
1523,0.136132
1521,0.135982
1519,0.135788
1517,0.135656
1515,0.135512
1513,0.135395
1511,0.135191
1509,0.135069
1507,0.13494
1505,0.134798
1503,0.134735
1501,0.134521
1499,0.134431
1497,0.134392
1495,0.134211
1493,0.13414
1491,0.133994
1489,0.133926
1487,0.133869
1485,0.133672
1483,0.133646
1481,0.133535
1479,0.13352
1477,0.13347
1475,0.133305
1473,0.1333
1471,0.133192
1469,0.133094
1467,0.133081
1465,0.132972
1463,0.132913
1461,0.132842
1459,0.132755
1457,0.132723
1455,0.132703
1453,0.132579
1451,0.132564
1449,0.132489
1447,0.132446
1445,0.132415
1443,0.132335
1441,0.132288
1439,0.132157
1437,0.132213
1435,0.132116
1433,0.132065
1431,0.132066
1429,0.131957
1427,0.131933
1425,0.131831
1423,0.131834
1421,0.131792
1419,0.131701
1417,0.131692
1415,0.131708
1413,0.131606
1411,0.131431
1409,0.131503
1407,0.131458
1405,0.131409
1403,0.131374
1401,0.131378
1399,0.131334
1397,0.131242
1395,0.131303
1393,0.131119
1391,0.131106
1389,0.130987
1387,0.130983
1385,0.130923
1383,0.131046
1381,0.131002
1379,0.130879
1377,0.130934
1375,0.130851
1373,0.130653
1371,0.130701
1369,0.130565
1367,0.13059
1365,0.130441
1363,0.130412
1361,0.130559
1359,0.130409
1357,0.130378
1355,0.13031
1353,0.13038
1351,0.130296
1349,0.130304
1347,0.13027
1345,0.130296
1343,0.130228
1341,0.130251
1339,0.13027
1337,0.130285
1335,0.130285
1333,0.130248
1331,0.130306
1329,0.130357
1327,0.130334
1325,0.130317
1323,0.13038
1321,0.130396
1319,0.130454
1317,0.13048
1315,0.130521
1313,0.130609
1311,0.130625
1309,0.130745
1307,0.130735
1305,0.130865
1303,0.130914
1301,0.131024
1299,0.131077
1297,0.131125
1295,0.131283
1293,0.131321
1291,0.131443
1289,0.131654
1287,0.131686
1285,0.131803
1283,0.132009
1281,0.132181
1279,0.132261
1277,0.132431
1275,0.132573
1273,0.132779
1271,0.132978
1269,0.133204
1267,0.13337
1265,0.133551
1263,0.133816
1261,0.134039
1259,0.134265
1257,0.13451
1255,0.134786
1253,0.134999
1251,0.13535
1249,0.135572
1247,0.135885
1245,0.136197
1243,0.136502
1241,0.136792
1239,0.137117
1237,0.137467
1235,0.137743
1233,0.138203
1231,0.138504
1229,0.138899
1227,0.139277
1225,0.139606
1223,0.140059
1221,0.140463
1219,0.140866
1217,0.141364
1215,0.141792
1213,0.142248
1211,0.142782
1209,0.143261
1207,0.143798
1205,0.144321
1203,0.14481
1201,0.145394
1199,0.145806
1197,0.14632
1195,0.146933
1193,0.147561
1191,0.148096
1189,0.148743
1187,0.149367
1185,0.149941
1183,0.150649
1181,0.151238
1179,0.151909
1177,0.152535
1175,0.153168
1173,0.153839
1171,0.154474
1169,0.155116
1167,0.155775
1165,0.156377
1163,0.157086
1161,0.157685
1159,0.158371
1157,0.159063
1155,0.159739
1153,0.160424
1151,0.161127
1149,0.161867
1147,0.162629
1145,0.163387
1143,0.1643
1141,0.165158
1139,0.166013
1137,0.166941
1135,0.167924
1133,0.168969
1131,0.169984
1129,0.170995
1127,0.172085
1125,0.173207
1123,0.17433
1121,0.175454
1119,0.176642
1117,0.177746
1115,0.178873
1113,0.180067
1111,0.181117
1109,0.1822
1107,0.183274
1105,0.18424
1103,0.185191
1101,0.186119
1099,0.186979
1097,0.187762
1095,0.188459
1093,0.189121
1091,0.189699
1089,0.190192
1087,0.190689
1085,0.191084
1083,0.191478
1081,0.191852
1079,0.192126
1077,0.192465
1075,0.19277
1073,0.193173
1071,0.193581
1069,0.193942
1067,0.194427
1065,0.194883
1063,0.195444
1061,0.19603
1059,0.196617
1057,0.197312
1055,0.197972
1053,0.198725
1051,0.199492
1049,0.200284
1047,0.201074
1045,0.201835
1043,0.202506
1041,0.20325
1039,0.203852
1037,0.204429
1035,0.204957
1033,0.205422
1031,0.205755
1029,0.206029
1027,0.206194
1025,0.20639
1023,0.206301
1021,0.206307
1019,0.206134
1017,0.205915
1015,0.205697
1013,0.205297
1011,0.205067
1009,0.204575
1007,0.204168
1005,0.203744
1003,0.203197
1001,0.202683
999,0.202166
997,0.201547
995,0.200989
993,0.200308
991,0.199594
989,0.198827
987,0.19812
985,0.197384
983,0.196617
981,0.195881
979,0.195172
977,0.194453
975,0.193782
973,0.193193
971,0.192437
969,0.191876
967,0.191246
965,0.190756
963,0.190169
961,0.189532
959,0.189037
957,0.188437
955,0.187864
953,0.18728
951,0.186627
949,0.185956
947,0.185202
945,0.18464
943,0.183651
941,0.182998
939,0.182268
937,0.181473
935,0.180718
933,0.18002
931,0.179233
929,0.178509
927,0.177636
925,0.17689
923,0.176028
921,0.175114
919,0.174422
917,0.173653
915,0.172869
913,0.172058
911,0.171207
909,0.170545
907,0.169749
905,0.168884
903,0.168297
901,0.167564
899,0.169061
897,0.167999
895,0.165665
893,0.163387
891,0.157672
889,0.168118
887,0.162405
885,0.162882
883,0.168385
881,0.163125
879,0.16554
877,0.165148
875,0.163456
873,0.163277
871,0.166447
869,0.160568
867,0.160037
865,0.15948
863,0.160791
861,0.161692
859,0.159989
857,0.160572
855,0.157234
853,0.158997
851,0.158291
849,0.158637
847,0.158113
845,0.158353
843,0.1579
841,0.158152
839,0.157863
837,0.158005
835,0.157747
833,0.157931
831,0.158417
829,0.158696
827,0.158328
825,0.158416
823,0.158997
821,0.159044
819,0.15951
817,0.16011
815,0.16041
813,0.160339
811,0.161256
809,0.161744
807,0.162471
805,0.162124
803,0.163154
801,0.163882
799,0.163844
797,0.164575
795,0.165081
793,0.165151
791,0.166009
789,0.166491
787,0.166926
785,0.167096
783,0.167426
781,0.167959
779,0.168775
777,0.169087
775,0.169881
773,0.170527
771,0.171325
769,0.172415
767,0.173275
765,0.17407
763,0.175284
761,0.176265
759,0.177505
757,0.178655
755,0.179619
753,0.180253
751,0.18131
749,0.182333
747,0.182883
745,0.183387
743,0.184075
741,0.184551
739,0.18478
737,0.185088
735,0.185318
733,0.18519
731,0.185445
729,0.185725
727,0.185521
725,0.185943
723,0.185942
721,0.186584
719,0.186664
717,0.186944
715,0.187418
713,0.187764
711,0.188132
709,0.188623
707,0.188838
705,0.189024
703,0.188985
701,0.189169
699,0.189249
697,0.189025
695,0.188964
693,0.188602
691,0.188433
689,0.188005
687,0.187481
685,0.18731
683,0.186931
681,0.186537
679,0.18633
677,0.185842
675,0.185484
673,0.185223
671,0.184864
669,0.184339
667,0.183946
665,0.183665
663,0.183287
661,0.183127
659,0.182788
657,0.182499
655,0.182274
653,0.182143
651,0.1818
649,0.18159
647,0.181503
645,0.181034
643,0.180946
641,0.18033
639,0.180217
637,0.179931
635,0.179637
633,0.179374
631,0.179185
629,0.178997
627,0.178708
625,0.178684
623,0.178373
621,0.178429
619,0.17815
617,0.178097
615,0.178348
613,0.178281
611,0.178387
609,0.178676
607,0.178711
605,0.179023
603,0.179572
601,0.180301
599,0.180665
597,0.181091
595,0.1816
593,0.182122
591,0.182452
589,0.182849
587,0.18304
585,0.183234
583,0.183475
581,0.183545
579,0.183802
577,0.184046
575,0.184498
573,0.185037
571,0.185624
569,0.186505
567,0.187394
565,0.188473
563,0.189448
561,0.19043
559,0.191216
557,0.191978
555,0.192175
553,0.192601
551,0.192457
549,0.192405
547,0.191887
545,0.191485
543,0.191294
541,0.191196
539,0.191573
537,0.191998
535,0.192661
533,0.193383
531,0.194254
529,0.194905
527,0.195787
525,0.196639
523,0.19683
521,0.197246
519,0.197503
517,0.197383
515,0.197688
513,0.197572
511,0.197968
509,0.198429
507,0.19903
505,0.199569
503,0.200525
501,0.201551
499,0.202722
497,0.203917
495,0.204966
493,0.205801
491,0.205901
489,0.205831
487,0.205366
485,0.204565
483,0.203887
481,0.203557
479,0.203638
477,0.20404
475,0.204666
473,0.205731
471,0.207092
469,0.208172
467,0.209035
465,0.209041
463,0.208828
461,0.208268
459,0.207341
457,0.206916
455,0.206751
453,0.206702
451,0.207295
449,0.207741
447,0.208864
445,0.209628
443,0.210687
441,0.211236
439,0.212037
437,0.212287
435,0.212874
433,0.213446
431,0.213831
429,0.214523
427,0.215625
425,0.21646
423,0.217444
421,0.218331
419,0.219096
417,0.219151
415,0.219422
413,0.219835
411,0.220382
409,0.22131
407,0.222277
405,0.223502
403,0.224969
401,0.226211
399,0.227528
397,0.228343
395,0.228614
393,0.229528
391,0.229569
389,0.230899
387,0.231513
385,0.232867
383,0.234219
381,0.235527
379,0.23719
377,0.238756
375,0.240241
373,0.242686
371,0.243637
369,0.245298
367,0.246171
365,0.247278
363,0.247935
361,0.249457
359,0.250716
357,0.253234
355,0.255913
353,0.257746
351,0.260222
349,0.260048
347,0.260704
345,0.264197
343,0.264149
341,0.266835
339,0.269001
337,0.271665
335,0.274724
333,0.275678
331,0.278169
329,0.280513
327,0.282717
325,0.286374
323,0.288339
321,0.292396
319,0.295826
317,0.299052
315,0.302423
313,0.306536
311,0.309873
309,0.313936
307,0.319189
305,0.323926
303,0.328103
301,0.332794
299,0.337537
297,0.342238
295,0.347061
293,0.353186
291,0.358235
289,0.363902
287,0.36931
285,0.374438
283,0.378667
281,0.383116
279,0.386685
277,0.390964
275,0.392926
273,0.394773
271,0.395196
269,0.395119
267,0.395017
265,0.393597
263,0.392103
261,0.389724
259,0.38717
257,0.383529
255,0.380444
253,0.375612
251,0.371058
249,0.365683
247,0.35871
245,0.351362
243,0.343339
241,0.335684
239,0.328724
237,0.321717
235,0.315977
233,0.310892
231,0.306931
229,0.303264
227,0.301365
225,0.30182
223,0.308062
221,0.320449
219,0.343578
217,0.376849
215,0.419785
213,0.466243
211,0.511022
209,0.548441
207,0.571281
205,0.580014
203,0.576109
201,0.561685
200,0.55061