File: AbsorptionAnalysis/AbsorptionBGSubstraction_Pfolh2017/DodecaneCryostatFilm/Dodecane_KIT_Temp_50_B.txt
Dodecane_KIT_Temp_50_B
Wavelength (nm),Abs
2655,0.0805255
2653,0.078664
2651,0.079875
2649,0.0798067
2647,0.0807479
2645,0.080592
2643,0.0803089
2641,0.0799545
2639,0.0804175
2637,0.0806357
2635,0.0798392
2633,0.0789155
2631,0.0733758
2629,0.0805555
2627,0.0796806
2625,0.0800954
2623,0.0806343
2621,0.0755976
2619,0.081625
2617,0.0789086
2615,0.079937
2613,0.0802677
2611,0.0799699
2609,0.081196
2607,0.0791185
2605,0.078091
2603,0.0793153
2601,0.0808611
2599,0.080691
2597,0.0786648
2595,0.0762923
2593,0.082612
2591,0.0799851
2589,0.0795495
2587,0.0816903
2585,0.0776518
2583,0.0806471
2581,0.0817077
2579,0.0812101
2577,0.0811493
2575,0.0801114
2573,0.080679
2571,0.0795182
2569,0.0803851
2567,0.081255
2565,0.0794044
2563,0.0785682
2561,0.081174
2559,0.081624
2557,0.0815779
2555,0.080891
2553,0.0804561
2551,0.0824338
2549,0.0808453
2547,0.0822808
2545,0.0815439
2543,0.0814551
2541,0.0815726
2539,0.0818248
2537,0.0812749
2535,0.08162
2533,0.0817877
2531,0.0819442
2529,0.082231
2527,0.0814859
2525,0.0818881
2523,0.0819195
2521,0.0823133
2519,0.0823035
2517,0.0821577
2515,0.0824313
2513,0.0824407
2511,0.0821798
2509,0.0823114
2507,0.0824836
2505,0.0825215
2503,0.0825783
2501,0.0827842
2499,0.0826393
2497,0.0829188
2495,0.0829352
2493,0.0828925
2491,0.0831151
2489,0.0829563
2487,0.0833055
2485,0.0832198
2483,0.083329
2481,0.0834183
2479,0.0831921
2477,0.0836218
2475,0.0835446
2473,0.0836852
2471,0.0838793
2469,0.0836761
2467,0.0841266
2465,0.0838224
2463,0.0837436
2461,0.0842298
2459,0.0840422
2457,0.0842844
2455,0.0844654
2453,0.0843939
2451,0.0847412
2449,0.0845449
2447,0.0845051
2445,0.0848934
2443,0.0847682
2441,0.0848988
2439,0.0851225
2437,0.0850393
2435,0.0851756
2433,0.0852598
2431,0.0855103
2429,0.085613
2427,0.0855354
2425,0.0860821
2423,0.085857
2421,0.0858019
2419,0.0862292
2417,0.0861749
2415,0.08619
2413,0.0864998
2411,0.0863237
2409,0.0865321
2407,0.0869532
2405,0.0867003
2403,0.0869413
2401,0.0871396
2399,0.0869328
2397,0.087435
2395,0.0876299
2393,0.0874543
2391,0.0878934
2389,0.0879469
2387,0.0878978
2385,0.0881688
2383,0.0882186
2381,0.0883625
2379,0.0885709
2377,0.0887029
2375,0.0888875
2373,0.0890076
2371,0.0891811
2369,0.0891605
2367,0.0894702
2365,0.0896408
2363,0.0897174
2361,0.0900388
2359,0.089949
2357,0.0904107
2355,0.0903955
2353,0.0906379
2351,0.0908647
2349,0.0909718
2347,0.0914492
2345,0.0912047
2343,0.091756
2341,0.0916659
2339,0.0918608
2337,0.0920928
2335,0.0922221
2333,0.0925638
2331,0.0923577
2329,0.0931004
2327,0.0928851
2325,0.0933048
2323,0.093425
2321,0.0938274
2319,0.0938095
2317,0.0940684
2315,0.0944015
2313,0.0945035
2311,0.0949301
2309,0.0949481
2307,0.0953736
2305,0.0952343
2303,0.0959127
2301,0.0957465
2299,0.0961348
2297,0.0960647
2295,0.0967836
2293,0.0967119
2291,0.0971723
2289,0.0974867
2287,0.0976743
2285,0.0975782
2283,0.098289
2281,0.0982265
2279,0.0984322
2277,0.0983085
2275,0.0991971
2273,0.0993937
2271,0.0996362
2269,0.0999405
2267,0.100284
2265,0.100712
2263,0.100447
2261,0.101216
2259,0.101544
2257,0.101875
2255,0.101737
2253,0.102664
2251,0.102854
2249,0.103185
2247,0.103404
2245,0.103969
2243,0.104204
2241,0.104263
2239,0.104955
2237,0.10529
2235,0.105633
2233,0.105938
2231,0.106361
2229,0.106391
2227,0.107013
2225,0.107608
2223,0.107702
2221,0.108352
2219,0.108793
2217,0.108845
2215,0.10954
2213,0.109661
2211,0.110442
2209,0.110732
2207,0.110952
2205,0.111708
2203,0.111706
2201,0.112394
2199,0.112547
2197,0.112967
2195,0.113513
2193,0.113865
2191,0.114121
2189,0.114859
2187,0.11522
2185,0.115503
2183,0.115967
2181,0.116232
2179,0.116578
2177,0.117554
2175,0.117823
2173,0.118295
2171,0.118706
2169,0.119197
2167,0.119585
2165,0.120163
2163,0.120557
2161,0.12101
2159,0.121616
2157,0.122144
2155,0.122474
2153,0.123069
2151,0.123536
2149,0.124035
2147,0.124442
2145,0.125107
2143,0.125387
2141,0.126132
2139,0.126623
2137,0.12721
2135,0.127606
2133,0.12811
2131,0.128935
2129,0.1292236
2127,0.129782
2125,0.130411
2123,0.130983
2121,0.131594
2119,0.132048
2117,0.132769
2115,0.133339
2113,0.134017
2111,0.134498
2109,0.13514
2107,0.135847
2105,0.136446
2103,0.136951
2101,0.137722
2099,0.13837
2097,0.139064
2095,0.139704
2093,0.140378
2091,0.140973
2089,0.141723
2087,0.142569
2085,0.14308
2083,0.143954
2081,0.1446
2079,0.145234
2077,0.145865
2075,0.146579
2073,0.147475
2071,0.148206
2069,0.148898
2067,0.149705
2065,0.150438
2063,0.151142
2061,0.15191
2059,0.152513
2057,0.153394
2055,0.154265
2053,0.155086
2051,0.155782
2049,0.156537
2047,0.157255
2045,0.158121
2043,0.158964
2041,0.159806
2039,0.160581
2037,0.161244
2035,0.162118
2033,0.162891
2031,0.16385
2029,0.164623
2027,0.165298
2025,0.166218
2023,0.166886
2021,0.167799
2019,0.168668
2017,0.169524
2015,0.170319
2013,0.171011
2011,0.171909
2009,0.1726
2007,0.173369
2005,0.174268
2003,0.174913
2001,0.17583
1999,0.176681
1997,0.177423
1995,0.178138
1993,0.179101
1991,0.179771
1989,0.180524
1987,0.18125
1985,0.18192
1983,0.182729
1981,0.183407
1979,0.184286
1977,0.184986
1975,0.185602
1973,0.186342
1971,0.18717
1969,0.187905
1967,0.188426
1965,0.189191
1963,0.189836
1961,0.190599
1959,0.191217
1957,0.191979
1955,0.192672
1953,0.193253
1951,0.193876
1949,0.194775
1947,0.195328
1945,0.196287
1943,0.196773
1941,0.197516
1939,0.198243
1937,0.19891
1935,0.199601
1933,0.200426
1931,0.20094
1929,0.20178
1927,0.202438
1925,0.202995
1923,0.203958
1921,0.204574
1919,0.20557
1917,0.206092
1915,0.206699
1913,0.207571
1911,0.208288
1909,0.208871
1907,0.209379
1905,0.210615
1903,0.211278
1901,0.211429
1899,0.212737
1897,0.213418
1895,0.213846
1893,0.214749
1891,0.215341
1889,0.216169
1887,0.216617
1885,0.217135
1883,0.218009
1881,0.218487
1879,0.218958
1877,0.21952
1875,0.219907
1873,0.220924
1871,0.221251
1869,0.221646
1867,0.222723
1865,0.222794
1863,0.223264
1861,0.223523
1859,0.22436
1857,0.224495
1855,0.224444
1853,0.225417
1851,0.225242
1849,0.225177
1847,0.226347
1845,0.225972
1843,0.225836
1841,0.226524
1839,0.226544
1837,0.226603
1835,0.226861
1833,0.226483
1831,0.226508
1829,0.226577
1827,0.226193
1825,0.226382
1823,0.22594
1821,0.22594
1819,0.225816
1817,0.2254
1815,0.225263
1813,0.224899
1811,0.22451
1809,0.224301
1807,0.223852
1805,0.223419
1803,0.223032
1801,0.222592
1799,0.222172
1797,0.221587
1795,0.221086
1793,0.220661
1791,0.22007
1789,0.21956
1787,0.21899
1785,0.218509
1783,0.217709
1781,0.217251
1779,0.216563
1777,0.216033
1775,0.215405
1773,0.214733
1771,0.214201
1769,0.213392
1767,0.212817
1765,0.212169
1763,0.211464
1761,0.210908
1759,0.210196
1757,0.209625
1755,0.208866
1753,0.208294
1751,0.207698
1749,0.206914
1747,0.206276
1745,0.205663
1743,0.204886
1741,0.204267
1739,0.20364
1737,0.202935
1735,0.202189
1733,0.201406
1731,0.20086
1729,0.200088
1727,0.199365
1725,0.198678
1723,0.197963
1721,0.197238
1719,0.196444
1717,0.195637
1715,0.194935
1713,0.194193
1711,0.193386
1709,0.192572
1707,0.19184
1705,0.19093
1703,0.19011
1701,0.189399
1699,0.188588
1697,0.187715
1695,0.186929
1693,0.186052
1691,0.18522
1689,0.184452
1687,0.183593
1685,0.182737
1683,0.181919
1681,0.181133
1679,0.18023
1677,0.179358
1675,0.178635
1673,0.177829
1671,0.176963
1669,0.176223
1667,0.17546
1665,0.174618
1663,0.173714
1661,0.172976
1659,0.172151
1657,0.171369
1655,0.170553
1653,0.169716
1651,0.169028
1649,0.168157
1647,0.167323
1645,0.166534
1643,0.165735
1641,0.165025
1639,0.164209
1637,0.163477
1635,0.162697
1633,0.161889
1631,0.161073
1629,0.160347
1627,0.159663
1625,0.158998
1623,0.15816
1621,0.157506
1619,0.156817
1617,0.156033
1615,0.15544
1613,0.154678
1611,0.154114
1609,0.153421
1607,0.152846
1605,0.152236
1603,0.151591
1601,0.151018
1599,0.150469
1597,0.149916
1595,0.14933
1593,0.148863
1591,0.148311
1589,0.147872
1587,0.147326
1585,0.146893
1583,0.146456
1581,0.146128
1579,0.145644
1577,0.145147
1575,0.144827
1573,0.144392
1571,0.143971
1569,0.143704
1567,0.143263
1565,0.142945
1563,0.142639
1561,0.142302
1559,0.142004
1557,0.141711
1555,0.141342
1553,0.141085
1551,0.140789
1549,0.140514
1547,0.140313
1545,0.140072
1543,0.139794
1541,0.139488
1539,0.139361
1537,0.139066
1535,0.138881
1533,0.138729
1531,0.138418
1529,0.138305
1527,0.138086
1525,0.137899
1523,0.137786
1521,0.137555
1519,0.137384
1517,0.137253
1515,0.137056
1513,0.136984
1511,0.136771
1509,0.136543
1507,0.136484
1505,0.136363
1503,0.136303
1501,0.136118
1499,0.136019
1497,0.135926
1495,0.135797
1493,0.135707
1491,0.135608
1489,0.135462
1487,0.135449
1485,0.135244
1483,0.135265
1481,0.135106
1479,0.135057
1477,0.135021
1475,0.134893
1473,0.134839
1471,0.13476
1469,0.13467
1467,0.134655
1465,0.134526
1463,0.134493
1461,0.134411
1459,0.13441
1457,0.134304
1455,0.134297
1453,0.134167
1451,0.134111
1449,0.134072
1447,0.134022
1445,0.133987
1443,0.133934
1441,0.13385
1439,0.133825
1437,0.133809
1435,0.133672
1433,0.133659
1431,0.133688
1429,0.133563
1427,0.13351
1425,0.133491
1423,0.13348
1421,0.133369
1419,0.133298
1417,0.13328
1415,0.133203
1413,0.133213
1411,0.133028
1409,0.133115
1407,0.133044
1405,0.133041
1403,0.132899
1401,0.132914
1399,0.132904
1397,0.132768
1395,0.132925
1393,0.132737
1391,0.13276
1389,0.132765
1387,0.132656
1385,0.132711
1383,0.132724
1381,0.132679
1379,0.132506
1377,0.132501
1375,0.132362
1373,0.132273
1371,0.132359
1369,0.132225
1367,0.132239
1365,0.132208
1363,0.132023
1361,0.13223
1359,0.132082
1357,0.131989
1355,0.132053
1353,0.131984
1351,0.131986
1349,0.131914
1347,0.131937
1345,0.13192
1343,0.13188
1341,0.131928
1339,0.131953
1337,0.131939
1335,0.131901
1333,0.13193
1331,0.131934
1329,0.131964
1327,0.132031
1325,0.132008
1323,0.131986
1321,0.132097
1319,0.132093
1317,0.13213
1315,0.132217
1313,0.132258
1311,0.132314
1309,0.132403
1307,0.132411
1305,0.132523
1303,0.13262
1301,0.132665
1299,0.132774
1297,0.132824
1295,0.13298
1293,0.133038
1291,0.133146
1289,0.133328
1287,0.133393
1285,0.133506
1283,0.133681
1281,0.133821
1279,0.133947
1277,0.134127
1275,0.1343
1273,0.134461
1271,0.134721
1269,0.134898
1267,0.135067
1265,0.135279
1263,0.135521
1261,0.135739
1259,0.135975
1257,0.136245
1255,0.136494
1253,0.136761
1251,0.137043
1249,0.137303
1247,0.13762
1245,0.137937
1243,0.138248
1241,0.138568
1239,0.138871
1237,0.139229
1235,0.139528
1233,0.139924
1231,0.140254
1229,0.14068
1227,0.141081
1225,0.1414
1223,0.141838
1221,0.14223
1219,0.142715
1217,0.143114
1215,0.14358
1213,0.144102
1211,0.144541
1209,0.145062
1207,0.145611
1205,0.146107
1203,0.146594
1201,0.147204
1199,0.147557
1197,0.148143
1195,0.148737
1193,0.149362
1191,0.149917
1189,0.150552
1187,0.151151
1185,0.15177
1183,0.15246
1181,0.153047
1179,0.153759
1177,0.154371
1175,0.154974
1173,0.155643
1171,0.156239
1169,0.156969
1167,0.157629
1165,0.158203
1163,0.158926
1161,0.159574
1159,0.160236
1157,0.160957
1155,0.161578
1153,0.162257
1151,0.163
1149,0.163723
1147,0.164539
1145,0.165322
1143,0.166165
1141,0.167019
1139,0.167941
1137,0.168832
1135,0.169849
1133,0.170882
1131,0.171897
1129,0.172895
1127,0.173989
1125,0.175116
1123,0.176223
1121,0.177367
1119,0.178524
1117,0.179635
1115,0.180777
1113,0.181901
1111,0.182979
1109,0.184066
1107,0.18515
1105,0.186088
1103,0.187095
1101,0.188018
1099,0.188829
1097,0.189613
1095,0.190315
1093,0.190981
1091,0.191561
1089,0.192049
1087,0.19257
1085,0.192907
1083,0.193325
1081,0.193731
1079,0.194061
1077,0.194359
1075,0.194732
1073,0.195075
1071,0.195515
1069,0.195917
1067,0.196358
1065,0.196828
1063,0.197466
1061,0.197976
1059,0.198589
1057,0.199265
1055,0.199973
1053,0.200725
1051,0.201508
1049,0.20218
1047,0.203031
1045,0.203712
1043,0.204425
1041,0.205154
1039,0.205718
1037,0.206328
1035,0.206844
1033,0.207281
1031,0.20758
1029,0.207875
1027,0.208035
1025,0.208212
1023,0.208156
1021,0.208096
1019,0.2079
1017,0.207776
1015,0.207519
1013,0.207168
1011,0.206907
1009,0.206434
1007,0.206019
1005,0.205555
1003,0.205011
1001,0.204517
999,0.203925
997,0.203315
995,0.20271
993,0.202007
991,0.201261
989,0.200564
987,0.199865
985,0.199127
983,0.198387
981,0.197668
979,0.196896
977,0.196226
975,0.195571
973,0.194912
971,0.194224
969,0.193674
967,0.193084
965,0.192458
963,0.191968
961,0.191303
959,0.190759
957,0.190117
955,0.189647
953,0.188982
951,0.188321
949,0.187646
947,0.186995
945,0.186211
943,0.185529
941,0.184664
939,0.184015
937,0.183084
935,0.182288
933,0.181699
931,0.180898
929,0.180149
927,0.179337
925,0.178467
923,0.17775
921,0.176847
919,0.176101
917,0.175175
915,0.17444
913,0.173727
911,0.172856
909,0.172049
907,0.171455
905,0.170514
903,0.169977
901,0.16934
899,0.165881
897,0.167898
895,0.168993
893,0.167942
891,0.162676
889,0.169318
887,0.163964
885,0.164653
883,0.170006
881,0.164944
879,0.164274
877,0.167828
875,0.165343
873,0.164696
871,0.165134
869,0.161454
867,0.162736
865,0.161377
863,0.162652
861,0.162702
859,0.160873
857,0.163002
855,0.160933
853,0.161758
851,0.160823
849,0.161131
847,0.161097
845,0.16067
843,0.160841
841,0.160822
839,0.160697
837,0.160927
835,0.160693
833,0.160776
831,0.160563
829,0.161298
827,0.161249
825,0.16148
823,0.162118
821,0.162196
819,0.162033
817,0.162687
815,0.163202
813,0.163087
811,0.163969
809,0.164187
807,0.164822
805,0.165124
803,0.165699
801,0.166178
799,0.166817
797,0.167568
795,0.16775
793,0.167779
791,0.168628
789,0.16917
787,0.169913
785,0.169958
783,0.170342
781,0.171185
779,0.171667
777,0.172084
775,0.172725
773,0.173518
771,0.174541
769,0.175375
767,0.176407
765,0.176969
763,0.17819
761,0.178872
759,0.180479
757,0.181331
755,0.182297
753,0.183457
751,0.184304
749,0.18519
747,0.185673
745,0.186357
743,0.18671
741,0.187404
739,0.187754
737,0.187784
735,0.188062
733,0.188096
731,0.188201
729,0.188423
727,0.18837
725,0.188865
723,0.189009
721,0.189496
719,0.189481
717,0.190078
715,0.190181
713,0.190773
711,0.191363
709,0.191636
707,0.192024
705,0.191863
703,0.192148
701,0.192197
699,0.192113
697,0.192037
695,0.191864
693,0.191623
691,0.191447
689,0.190972
687,0.19066
685,0.190368
683,0.189971
681,0.189635
679,0.189375
677,0.188974
675,0.18858
673,0.18829
671,0.187874
669,0.187467
667,0.186878
665,0.186704
663,0.1864409
661,0.186083
659,0.185898
657,0.185594
655,0.185432
653,0.185192
651,0.184877
649,0.184751
647,0.184539
645,0.184286
643,0.184135
641,0.183497
639,0.183409
637,0.183064
635,0.182697
633,0.18257
631,0.182302
629,0.182075
627,0.18187
625,0.181717
623,0.181524
621,0.181533
619,0.181247
617,0.18129
615,0.181461
613,0.181403
611,0.181448
609,0.181667
607,0.181938
605,0.182142
603,0.182715
601,0.183321
599,0.183844
597,0.184316
595,0.184681
593,0.185271
591,0.185515
589,0.185888
587,0.186157
585,0.186492
583,0.186728
581,0.186729
579,0.187047
577,0.187172
575,0.187523
573,0.18812
571,0.188825
569,0.189463
567,0.190575
565,0.191543
563,0.19249
561,0.19343
559,0.1941
557,0.195042
555,0.195304
553,0.195506
551,0.195485
549,0.195306
547,0.194928
545,0.194568
543,0.194335
541,0.194373
539,0.194524
537,0.194887
535,0.195765
533,0.196252
531,0.197292
529,0.19802
527,0.198887
525,0.199597
523,0.199924
521,0.200321
519,0.200629
517,0.200401
515,0.20065
513,0.200717
511,0.201057
509,0.201497
507,0.201882
505,0.202775
503,0.203647
501,0.20453
499,0.205985
497,0.206748
495,0.207943
493,0.208462
491,0.20866
489,0.208636
487,0.208131
485,0.20713
483,0.206903
481,0.206448
479,0.206329
477,0.206859
475,0.207664
473,0.208766
471,0.210001
469,0.21092
467,0.211731
465,0.211765
463,0.211443
461,0.210939
459,0.210246
457,0.209689
455,0.209379
453,0.209349
451,0.209833
449,0.210599
447,0.211675
445,0.212359
443,0.213343
441,0.214024
439,0.214572
437,0.215022
435,0.215748
433,0.216131
431,0.216792
429,0.217118
427,0.218458
425,0.219236
423,0.220284
421,0.221057
419,0.221786
417,0.22167
415,0.22197
413,0.22245
411,0.222961
409,0.223834
407,0.22485
405,0.226247
403,0.227649
401,0.22891
399,0.230147
397,0.23104
395,0.231229
393,0.231705
391,0.232444
389,0.233797
387,0.23426
385,0.235429
383,0.236724
381,0.238043
379,0.239933
377,0.241534
375,0.243252
373,0.244954
371,0.246786
369,0.247697
367,0.248817
365,0.249839
363,0.25054
361,0.251991
359,0.25395
357,0.255865
355,0.258579
353,0.260534
351,0.263077
349,0.261959
347,0.264033
345,0.265113
343,0.267229
341,0.26942
339,0.27214
337,0.274168
335,0.276953
333,0.278578
331,0.280069
329,0.282901
327,0.285255
325,0.288384
323,0.291523
321,0.294812
319,0.298429
317,0.301941
315,0.304535
313,0.309868
311,0.312575
309,0.316814
307,0.321926
305,0.326786
303,0.331203
301,0.335527
299,0.340927
297,0.345446
295,0.350373
293,0.355856
291,0.361496
289,0.3671
287,0.372164
285,0.377356
283,0.38156
281,0.385856
279,0.390115
277,0.393721
275,0.395798
273,0.397014
271,0.3983
269,0.398116
267,0.397694
265,0.396392
263,0.394596
261,0.391917
259,0.389826
257,0.386345
255,0.3829
253,0.378051
251,0.373868
249,0.368369
247,0.361267
245,0.353887
243,0.346204
241,0.338229
239,0.331527
237,0.32502
235,0.319061
233,0.3137
231,0.310296
229,0.306812
227,0.305019
225,0.306389
223,0.312971
221,0.326611
219,0.349797
217,0.383933
215,0.425464
213,0.471213
211,0.515084
209,0.549849
207,0.570542
205,0.580756
203,0.576172
201,0.56322
200,0.552395