File: AbsorptionAnalysis/AbsorptionBGSubstraction_Pfolh2017/DodecaneCryostatFilm/Dodecane_KIT_Vac_20.txt
Dodecane_KIT_Vac_20
Wavelength (nm),Abs
2655,0.0762397
2653,0.0776187
2651,0.078283
2649,0.0780284
2647,0.077829
2645,0.0799508
2643,0.0790452
2641,0.0787929
2639,0.0792082
2637,0.0786982
2635,0.076087
2633,0.0789315
2631,0.0737827
2629,0.0788376
2627,0.0787996
2625,0.0786015
2623,0.0781488
2621,0.0749669
2619,0.0786763
2617,0.0763054
2615,0.0779181
2613,0.0794748
2611,0.0785804
2609,0.0787045
2607,0.0783614
2605,0.0767716
2603,0.0773953
2601,0.0784189
2599,0.0781672
2597,0.0759947
2595,0.0763587
2593,0.0799531
2591,0.0785978
2589,0.0770725
2587,0.0810169
2585,0.075973
2583,0.0808662
2581,0.0783579
2579,0.0790711
2577,0.0807855
2575,0.0795144
2573,0.0811537
2571,0.0792453
2569,0.0791985
2567,0.0797368
2565,0.0802724
2563,0.0779401
2561,0.0796357
2559,0.0802861
2557,0.0795927
2555,0.0798964
2553,0.0791375
2551,0.0798473
2549,0.0801848
2547,0.0803213
2545,0.0800762
2543,0.0795418
2541,0.0800248
2539,0.0805721
2537,0.0793649
2535,0.0802817
2533,0.0799006
2531,0.0798952
2529,0.0806848
2527,0.0804707
2525,0.0808382
2523,0.0810815
2521,0.0811712
2519,0.081015
2517,0.0808507
2515,0.0810926
2513,0.0810229
2511,0.0810119
2509,0.0813098
2507,0.0810839
2505,0.0809651
2503,0.0812803
2501,0.0813532
2499,0.0812406
2497,0.0817619
2495,0.0813911
2493,0.0816947
2491,0.0818031
2489,0.081653
2487,0.0819139
2485,0.0820708
2483,0.0820761
2481,0.0820063
2479,0.082018
2477,0.082465
2475,0.0821056
2473,0.0820811
2471,0.082431
2469,0.0823445
2467,0.0826031
2465,0.0824605
2463,0.082778
2461,0.082856
2459,0.0827922
2457,0.082861
2455,0.083183
2453,0.0829227
2451,0.083118
2449,0.0833084
2447,0.0831534
2445,0.0834542
2443,0.0833372
2441,0.0834682
2439,0.0835818
2437,0.0836592
2435,0.0840532
2433,0.083875
2431,0.0840527
2429,0.0842239
2427,0.0842198
2425,0.0844338
2423,0.084391
2421,0.0843813
2419,0.0845917
2417,0.0846953
2415,0.0846921
2413,0.0849162
2411,0.0850492
2409,0.0849112
2407,0.0853997
2405,0.085365
2403,0.0852947
2401,0.0856746
2399,0.0856058
2397,0.0857258
2395,0.0861237
2393,0.0859132
2391,0.0861397
2389,0.086422
2387,0.0862858
2385,0.0866375
2383,0.0866311
2381,0.0867934
2379,0.087111
2377,0.0870787
2375,0.0872974
2373,0.0873832
2371,0.0873803
2369,0.0877205
2367,0.0876983
2365,0.0880287
2363,0.0879498
2361,0.0883725
2359,0.0883973
2357,0.0885972
2355,0.0887729
2353,0.088869
2351,0.0891484
2349,0.0892427
2347,0.0894886
2345,0.0896373
2343,0.0898204
2341,0.0900579
2339,0.0899916
2337,0.0904153
2335,0.0904419
2333,0.090748
2331,0.0907446
2329,0.091151
2327,0.0913545
2325,0.0912506
2323,0.0917757
2321,0.0918856
2319,0.0921432
2317,0.0922708
2315,0.0926912
2313,0.0926331
2311,0.0929136
2309,0.0931751
2307,0.093374
2305,0.0935663
2303,0.0939557
2301,0.0940077
2299,0.0942271
2297,0.0944589
2295,0.0946009
2293,0.0948391
2291,0.0951026
2289,0.0956143
2287,0.0957212
2285,0.0957772
2283,0.0963373
2281,0.0963762
2279,0.0965005
2277,0.0965323
2275,0.097091
2273,0.0971588
2271,0.0978629
2269,0.0978457
2267,0.0985187
2265,0.0991258
2263,0.0989894
2261,0.0991503
2259,0.0997042
2257,0.100052
2255,0.100196
2253,0.100672
2251,0.100692
2249,0.101232
2247,0.101391
2245,0.102116
2243,0.101899
2241,0.102491
2239,0.102667
2237,0.102814
2235,0.10368
2233,0.103682
2231,0.104416
2229,0.104501
2227,0.104858
2225,0.105237
2223,0.105551
2221,0.106254
2219,0.106351
2217,0.107034
2215,0.107119
2213,0.107485
2211,0.108409
2209,0.108461
2207,0.108924
2205,0.109369
2203,0.109679
2201,0.110218
2199,0.11011
2197,0.110643
2195,0.111054
2193,0.111454
2191,0.111822
2189,0.112406
2187,0.112526
2185,0.112924
2183,0.113323
2181,0.113531
2179,0.114282
2177,0.114862
2175,0.115048
2173,0.11573
2171,0.116308
2169,0.116577
2167,0.116914
2165,0.117544
2163,0.117766
2161,0.118221
2159,0.118888
2157,0.11935
2155,0.119871
2153,0.120336
2151,0.120818
2149,0.121326
2147,0.121774
2145,0.122245
2143,0.122728
2141,0.123377
2139,0.123836
2137,0.124327
2135,0.124808
2133,0.125431
2131,0.125918
2129,0.126264
2127,0.126914
2125,0.127545
2123,0.128163
2121,0.128513
2119,0.129243
2117,0.129879
2115,0.130334
2113,0.130959
2111,0.131714
2109,0.13226
2107,0.133057
2105,0.133406
2103,0.133953
2101,0.134911
2099,0.135363
2097,0.135969
2095,0.136684
2093,0.137301
2091,0.138086
2089,0.138546
2087,0.139453
2085,0.139947
2083,0.140734
2081,0.141448
2079,0.142048
2077,0.142686
2075,0.143451
2073,0.144198
2071,0.144991
2069,0.145708
2067,0.146403
2065,0.147125
2063,0.147786
2061,0.148574
2059,0.149178
2057,0.150198
2055,0.150915
2053,0.151695
2051,0.152384
2049,0.153022
2047,0.153874
2045,0.154682
2043,0.155428
2041,0.156294
2039,0.157111
2037,0.157876
2035,0.15863
2033,0.159299
2031,0.160197
2029,0.160962
2027,0.161697
2025,0.162423
2023,0.163253
2021,0.164081
2019,0.165033
2017,0.165633
2015,0.166456
2013,0.167181
2011,0.168043
2009,0.168786
2007,0.16944
2005,0.170379
2003,0.171064
2001,0.171698
1999,0.172806
1997,0.173562
1995,0.174194
1993,0.175125
1991,0.175825
1989,0.176537
1987,0.177221
1985,0.177907
1983,0.178662
1981,0.179368
1979,0.18018
1977,0.180781
1975,0.181703
1973,0.182149
1971,0.182953
1969,0.183661
1967,0.184206
1965,0.185021
1963,0.18572
1961,0.186435
1959,0.187071
1957,0.187722
1955,0.188425
1953,0.189068
1951,0.189782
1949,0.190535
1947,0.191169
1945,0.191906
1943,0.19245
1941,0.19316
1939,0.193936
1937,0.19469
1935,0.195222
1933,0.19609
1931,0.196645
1929,0.197405
1927,0.198217
1925,0.198707
1923,0.199672
1921,0.200187
1919,0.201174
1917,0.201712
1915,0.202371
1913,0.203133
1911,0.203902
1909,0.204482
1907,0.204846
1905,0.206284
1903,0.206746
1901,0.207023
1899,0.208423
1897,0.208936
1895,0.20937
1893,0.210249
1891,0.210705
1889,0.211661
1887,0.212097
1885,0.212617
1883,0.213393
1881,0.214063
1879,0.214485
1877,0.21525
1875,0.21541
1873,0.216314
1871,0.216864
1869,0.217049
1867,0.218264
1865,0.218199
1863,0.218804
1861,0.218792
1859,0.219851
1857,0.220085
1855,0.220075
1853,0.220835
1851,0.220835
1849,0.220883
1847,0.221924
1845,0.221541
1843,0.221442
1841,0.22208
1839,0.222057
1837,0.222145
1835,0.222428
1833,0.22212
1831,0.222282
1829,0.222243
1827,0.222137
1825,0.222038
1823,0.221861
1821,0.221884
1819,0.221577
1817,0.221357
1815,0.221229
1813,0.220826
1811,0.220644
1809,0.220328
1807,0.220051
1805,0.21955
1803,0.219148
1801,0.218909
1799,0.218384
1797,0.217933
1795,0.217459
1793,0.216994
1791,0.21656
1789,0.216066
1787,0.215615
1785,0.215135
1783,0.214433
1781,0.21404
1779,0.213389
1777,0.212843
1775,0.212215
1773,0.21164
1771,0.21113
1769,0.210467
1767,0.209997
1765,0.209288
1763,0.208668
1761,0.208101
1759,0.207449
1757,0.206914
1755,0.20621
1753,0.20566
1751,0.205002
1749,0.204345
1747,0.203793
1745,0.203157
1743,0.202409
1741,0.201868
1739,0.201183
1737,0.200566
1735,0.199916
1733,0.199112
1731,0.19855
1729,0.197858
1727,0.197173
1725,0.196489
1723,0.19575
1721,0.195162
1719,0.194428
1717,0.19369
1715,0.192966
1713,0.192206
1711,0.191431
1709,0.190735
1707,0.189988
1705,0.189186
1703,0.188357
1701,0.187606
1699,0.186872
1697,0.18603
1695,0.185236
1693,0.184481
1691,0.183612
1689,0.182864
1687,0.182002
1685,0.181187
1683,0.180394
1681,0.179606
1679,0.178755
1677,0.178012
1675,0.177237
1673,0.176415
1671,0.175689
1669,0.174909
1667,0.17409
1665,0.173368
1663,0.172398
1661,0.171696
1659,0.170938
1657,0.170149
1655,0.16942
1653,0.168586
1651,0.167874
1649,0.167044
1647,0.166256
1645,0.165473
1643,0.164683
1641,0.163965
1639,0.163163
1637,0.162446
1635,0.161762
1633,0.160939
1631,0.16015
1629,0.159457
1627,0.15878
1625,0.15806
1623,0.15725
1621,0.156608
1619,0.155946
1617,0.155187
1615,0.154558
1613,0.153859
1611,0.153214
1609,0.152589
1607,0.151991
1605,0.151354
1603,0.150712
1601,0.150126
1599,0.149646
1597,0.14903
1595,0.14848
1593,0.14801
1591,0.147436
1589,0.147019
1587,0.146453
1585,0.146047
1583,0.14555
1581,0.145196
1579,0.144735
1577,0.144272
1575,0.143934
1573,0.143507
1571,0.143071
1569,0.142756
1567,0.142408
1565,0.142084
1563,0.141739
1561,0.141383
1559,0.141114
1557,0.140732
1555,0.140455
1553,0.140198
1551,0.139889
1549,0.139632
1547,0.139343
1545,0.139147
1543,0.138886
1541,0.138565
1539,0.138355
1537,0.138175
1535,0.1379437
1533,0.137795
1531,0.137458
1529,0.137313
1527,0.137086
1525,0.136931
1523,0.136791
1521,0.136636
1519,0.136389
1517,0.136223
1515,0.13609
1513,0.13598
1511,0.135811
1509,0.13565
1507,0.135513
1505,0.13537
1503,0.135304
1501,0.135113
1499,0.135018
1497,0.134918
1495,0.134733
1493,0.134682
1491,0.134542
1489,0.134444
1487,0.134386
1485,0.134229
1483,0.134241
1481,0.134072
1479,0.134056
1477,0.133949
1475,0.13379
1473,0.133825
1471,0.133713
1469,0.133631
1467,0.133595
1465,0.133517
1463,0.133466
1461,0.133403
1459,0.133321
1457,0.133278
1455,0.13317
1453,0.133081
1451,0.133096
1449,0.133
1447,0.132969
1445,0.132911
1443,0.132849
1441,0.132817
1439,0.132696
1437,0.132715
1435,0.132569
1433,0.132598
1431,0.132573
1429,0.132461
1427,0.13246
1425,0.13236
1423,0.132341
1421,0.132282
1419,0.132233
1417,0.132168
1415,0.132213
1413,0.132102
1411,0.13204
1409,0.132046
1407,0.132011
1405,0.131956
1403,0.131902
1401,0.131984
1399,0.131894
1397,0.131812
1395,0.13185
1393,0.13176
1391,0.131668
1389,0.131656
1387,0.131589
1385,0.13153
1383,0.131637
1381,0.131502
1379,0.131432
1377,0.131437
1375,0.131281
1373,0.131143
1371,0.131227
1369,0.131107
1367,0.131203
1365,0.131033
1363,0.130959
1361,0.131122
1359,0.130975
1357,0.130916
1355,0.130857
1353,0.130961
1351,0.130862
1349,0.130802
1347,0.130842
1345,0.130832
1343,0.130766
1341,0.130841
1339,0.130827
1337,0.13084
1335,0.13083
1333,0.130804
1331,0.130835
1329,0.130855
1327,0.130922
1325,0.130906
1323,0.130921
1321,0.130922
1319,0.130994
1317,0.13098
1315,0.131095
1313,0.131132
1311,0.131177
1309,0.131285
1307,0.13127
1305,0.131382
1303,0.131444
1301,0.131511
1299,0.131602
1297,0.131631
1295,0.131788
1293,0.131848
1291,0.131959
1289,0.132137
1287,0.132192
1285,0.132333
1283,0.132487
1281,0.132568
1279,0.132754
1277,0.132916
1275,0.133018
1273,0.133177
1271,0.133405
1269,0.133591
1267,0.133797
1265,0.133974
1263,0.134252
1261,0.134431
1259,0.134671
1257,0.134934
1255,0.135171
1253,0.135418
1251,0.135702
1249,0.135934
1247,0.136253
1245,0.136561
1243,0.136826
1241,0.137146
1239,0.13748
1237,0.13777
1235,0.13807
1233,0.138469
1231,0.138791
1229,0.139205
1227,0.139609
1225,0.139926
1223,0.14035
1221,0.140765
1219,0.141185
1217,0.141612
1215,0.142046
1213,0.142566
1211,0.143034
1209,0.143465
1207,0.144031
1205,0.144507
1203,0.145076
1201,0.145604
1199,0.145989
1197,0.146528
1195,0.147093
1193,0.147713
1191,0.148231
1189,0.148895
1187,0.149499
1185,0.150093
1183,0.15078
1181,0.151328
1179,0.152014
1177,0.152663
1175,0.153253
1173,0.153927
1171,0.154527
1169,0.155189
1167,0.155892
1165,0.156466
1163,0.157167
1161,0.157793
1159,0.158469
1157,0.159155
1155,0.159821
1153,0.160534
1151,0.161276
1149,0.161956
1147,0.162781
1145,0.163577
1143,0.164401
1141,0.165259
1139,0.166169
1137,0.167039
1135,0.168056
1133,0.169055
1131,0.170039
1129,0.17111
1127,0.172218
1125,0.173289
1123,0.174402
1121,0.1755
1119,0.176639
1117,0.177741
1115,0.178819
1113,0.180007
1111,0.181085
1109,0.182131
1107,0.183189
1105,0.184147
1103,0.185137
1101,0.186042
1099,0.186845
1097,0.187648
1095,0.188326
1093,0.188978
1091,0.189562
1089,0.190078
1087,0.190607
1085,0.190991
1083,0.191391
1081,0.191813
1079,0.192115
1077,0.192514
1075,0.192857
1073,0.193264
1071,0.193683
1069,0.194032
1067,0.194563
1065,0.195056
1063,0.195637
1061,0.196262
1059,0.19683
1057,0.197491
1055,0.198217
1053,0.198957
1051,0.199696
1049,0.200464
1047,0.201237
1045,0.201919
1043,0.202627
1041,0.203327
1039,0.20392
1037,0.204499
1035,0.205043
1033,0.205467
1031,0.205823
1029,0.206056
1027,0.206221
1025,0.206415
1023,0.206428
1021,0.20634
1019,0.206229
1017,0.206038
1015,0.205777
1013,0.205442
1011,0.205179
1009,0.204782
1007,0.20438
1005,0.203988
1003,0.203433
1001,0.202921
999,0.202433
997,0.201827
995,0.201283
993,0.200617
991,0.199908
989,0.199225
987,0.198572
985,0.197851
983,0.197053
981,0.196362
979,0.195652
977,0.194943
975,0.194342
973,0.193678
971,0.192977
969,0.192416
967,0.191843
965,0.191263
963,0.190692
961,0.190108
959,0.189633
957,0.188929
955,0.188367
953,0.187749
951,0.187068
949,0.18637
947,0.185676
945,0.185072
943,0.184287
941,0.183509
939,0.182855
937,0.182004
935,0.181171
933,0.180579
931,0.179773
929,0.179025
927,0.178235
925,0.177392
923,0.176606
921,0.175858
919,0.174972
917,0.174148
915,0.173395
913,0.172561
911,0.171734
909,0.171076
907,0.17033
905,0.16956
903,0.168824
901,0.168136
899,0.172524
897,0.159804
895,0.170149
893,0.164297
891,0.164739
889,0.165752
887,0.163733
885,0.167962
883,0.165571
881,0.164349
879,0.166572
877,0.166837
875,0.160023
873,0.161131
871,0.165993
869,0.161148
867,0.162623
865,0.161893
863,0.161976
861,0.162594
859,0.159877
857,0.161701
855,0.158285
853,0.160501
851,0.160315
849,0.160755
847,0.160451
845,0.159913
843,0.159162
841,0.159196
839,0.158978
837,0.158717
835,0.159142
833,0.159081
831,0.159249
829,0.159266
827,0.159404
825,0.159539
823,0.160305
821,0.1599
819,0.160629
817,0.160992
815,0.160701
813,0.161133
811,0.161748
809,0.162429
807,0.162684
805,0.163049
803,0.16361
801,0.164059
799,0.164571
797,0.165371
795,0.165566
793,0.165364
791,0.166371
789,0.166864
787,0.167504
785,0.167854
783,0.168089
781,0.168681
779,0.169332
777,0.169842
775,0.170513
773,0.171152
771,0.17219
769,0.172871
767,0.174116
765,0.174687
763,0.175697
761,0.176556
759,0.17794
757,0.179019
755,0.180106
753,0.180911
751,0.18196
749,0.182612
747,0.183502
745,0.184046
743,0.184372
741,0.1849
739,0.185577
737,0.185486
735,0.185523
733,0.185642
731,0.185871
729,0.18615
727,0.18618
725,0.186412
723,0.186648
721,0.186944
719,0.187108
717,0.187474
715,0.187836
713,0.188355
711,0.188631
709,0.18905
707,0.189427
705,0.189453
703,0.189627
701,0.189555
699,0.189638
697,0.189441
695,0.189343
693,0.189219
691,0.188927
689,0.188464
687,0.18819
685,0.188022
683,0.187561
681,0.187049
679,0.186965
677,0.186485
675,0.186175
673,0.185943
671,0.185321
669,0.185035
667,0.184708
665,0.184318
663,0.183914
661,0.18368
659,0.183397
657,0.18317
655,0.183101
653,0.182852
651,0.182455
649,0.182246
647,0.18203
645,0.181738
643,0.181437
641,0.180905
639,0.18091
637,0.180589
635,0.180225
633,0.180023
631,0.179771
629,0.179548
627,0.179268
625,0.179204
623,0.179076
621,0.178916
619,0.178769
617,0.178844
615,0.178939
613,0.178917
611,0.179159
609,0.179288
607,0.179437
605,0.179638
603,0.180162
601,0.180713
599,0.181261
597,0.181699
595,0.182072
593,0.182583
591,0.183085
589,0.183291
587,0.18361
585,0.183841
583,0.184023
581,0.184165
579,0.184245
577,0.1846
575,0.185039
573,0.185669
571,0.186092
569,0.186934
567,0.187766
565,0.18883
563,0.189858
561,0.190646
559,0.191524
557,0.192098
555,0.192646
553,0.192885
551,0.192633
549,0.192656
547,0.192234
545,0.191958
543,0.191852
541,0.191647
539,0.191852
537,0.192298
535,0.192836
533,0.193679
531,0.194616
529,0.195221
527,0.196143
525,0.196881
523,0.197097
521,0.197529
519,0.19802
517,0.197886
515,0.198262
513,0.198197
511,0.198596
509,0.19882
507,0.199203
505,0.200205
503,0.200932
501,0.2019
499,0.203208
497,0.204246
495,0.205213
493,0.206061
491,0.206376
489,0.206123
487,0.205748
485,0.204875
483,0.204426
481,0.204011
479,0.203767
477,0.204342
475,0.205068
473,0.206112
471,0.207233
469,0.208373
467,0.20896
465,0.2092
463,0.208882
461,0.208378
459,0.207712
457,0.207139
455,0.207098
453,0.206814
451,0.207402
449,0.208078
447,0.208902
445,0.209752
443,0.210957
441,0.211629
439,0.212005
437,0.212248
435,0.212886
433,0.213683
431,0.21412
429,0.214615
427,0.215798
425,0.216613
423,0.217651
421,0.218382
419,0.218973
417,0.218913
415,0.219326
413,0.219716
411,0.22005
409,0.221056
407,0.221817
405,0.223271
403,0.224581
401,0.22581
399,0.227206
397,0.227543
395,0.22821
393,0.228571
391,0.22909
389,0.230178
387,0.230854
385,0.232066
383,0.233449
381,0.234937
379,0.236746
377,0.238189
375,0.239268
373,0.241703
371,0.242801
369,0.244256
367,0.244836
365,0.24662
363,0.24699
361,0.24862
359,0.250295
357,0.252538
355,0.255232
353,0.257141
351,0.259382
349,0.258942
347,0.261238
345,0.262335
343,0.264234
341,0.265867
339,0.268142
337,0.2713
335,0.273737
333,0.275328
331,0.277636
329,0.279974
327,0.282489
325,0.285717
323,0.288302
321,0.292106
319,0.295335
317,0.298911
315,0.302063
313,0.306683
311,0.310472
309,0.314342
307,0.319121
305,0.324272
303,0.328455
301,0.332952
299,0.337977
297,0.342761
295,0.34747
293,0.353317
291,0.358669
289,0.3641
287,0.369621
285,0.374221
283,0.378588
281,0.382969
279,0.385884
277,0.39021
275,0.392328
273,0.393673
271,0.39484
269,0.39446
267,0.393938
265,0.392257
263,0.391209
261,0.388391
259,0.38572
257,0.38253
255,0.37915
253,0.37449
251,0.36948
249,0.364029
247,0.357377
245,0.349971
243,0.341795
241,0.334098
239,0.326653
237,0.319664
235,0.313561
233,0.308584
231,0.30387
229,0.300901
227,0.299547
225,0.299671
223,0.306583
221,0.318808
219,0.342492
217,0.375764
215,0.418527
213,0.465635
211,0.510403
209,0.545495
207,0.568956
205,0.577773
203,0.572206
201,0.558938
200,0.546118