File: TGA_Analysis/20251002-01 CB-HS1.txt
         Index            Ts             t            HF        Weight            Tr
           [#]          [°C]           [s]          [mW]          [mg]          [°C]
             0   3,21771e+01   0,00000e+00  -5,09125e+00   2,35429e+00   3,00000e+01
            10   3,30657e+01   1,00000e+01  -4,99658e+00   2,35385e+00   3,16667e+01
            20   3,42800e+01   2,00000e+01  -4,91233e+00   2,35929e+00   3,33333e+01
            30   3,55848e+01   3,00000e+01  -4,74720e+00   2,35818e+00   3,50000e+01
            40   3,69251e+01   4,00000e+01  -4,51343e+00   2,35673e+00   3,66667e+01
            50   3,83161e+01   5,00000e+01  -4,25387e+00   2,35477e+00   3,83333e+01
            60   3,97460e+01   6,00000e+01  -4,02515e+00   2,35251e+00   4,00000e+01
            70   4,12152e+01   7,00000e+01  -3,83111e+00   2,35091e+00   4,16667e+01
            80   4,26868e+01   8,00000e+01  -3,68480e+00   2,34979e+00   4,33333e+01
            90   4,42146e+01   9,00000e+01  -3,56816e+00   2,34924e+00   4,50000e+01
           100   4,57561e+01   1,00000e+02  -3,44638e+00   2,34772e+00   4,66667e+01
           110   4,73258e+01   1,10000e+02  -3,33801e+00   2,34625e+00   4,83333e+01
           120   4,88767e+01   1,20000e+02  -3,23893e+00   2,34550e+00   5,00000e+01
           130   5,04725e+01   1,30000e+02  -3,16675e+00   2,34410e+00   5,16667e+01
           140   5,20571e+01   1,40000e+02  -3,08981e+00   2,34263e+00   5,33333e+01
           150   5,36662e+01   1,50000e+02  -3,01942e+00   2,34131e+00   5,50000e+01
           160   5,52764e+01   1,60000e+02  -2,93268e+00   2,34013e+00   5,66667e+01
           170   5,68778e+01   1,70000e+02  -2,85210e+00   2,33935e+00   5,83333e+01
           180   5,84878e+01   1,80000e+02  -2,78595e+00   2,33764e+00   6,00000e+01
           190   6,01125e+01   1,90000e+02  -2,72351e+00   2,33616e+00   6,16667e+01
           200   6,17440e+01   2,00000e+02  -2,68323e+00   2,33525e+00   6,33333e+01
           210   6,33576e+01   2,10000e+02  -2,64986e+00   2,33416e+00   6,50000e+01
           220   6,49918e+01   2,20000e+02  -2,58400e+00   2,33357e+00   6,66667e+01
           230   6,66092e+01   2,30000e+02  -2,52999e+00   2,33302e+00   6,83333e+01
           240   6,82434e+01   2,40000e+02  -2,48556e+00   2,33215e+00   7,00000e+01
           250   6,98752e+01   2,50000e+02  -2,45672e+00   2,33116e+00   7,16667e+01
           260   7,14831e+01   2,60000e+02  -2,42573e+00   2,33008e+00   7,33333e+01
           270   7,31436e+01   2,70000e+02  -2,40765e+00   2,32905e+00   7,50000e+01
           280   7,47890e+01   2,80000e+02  -2,36391e+00   2,32855e+00   7,66667e+01
           290   7,64303e+01   2,90000e+02  -2,32699e+00   2,32749e+00   7,83333e+01
           300   7,80559e+01   3,00000e+02  -2,30412e+00   2,32683e+00   8,00000e+01
           310   7,97187e+01   3,10000e+02  -2,30360e+00   2,32667e+00   8,16667e+01
           320   8,13595e+01   3,20000e+02  -2,29588e+00   2,32693e+00   8,33333e+01
           330   8,30054e+01   3,30000e+02  -2,27577e+00   2,32653e+00   8,50000e+01
           340   8,46498e+01   3,40000e+02  -2,27563e+00   2,32564e+00   8,66667e+01
           350   8,63193e+01   3,50000e+02  -2,26179e+00   2,32430e+00   8,83333e+01
           360   8,79553e+01   3,60000e+02  -2,26153e+00   2,32423e+00   9,00000e+01
           370   8,96219e+01   3,70000e+02  -2,25133e+00   2,32366e+00   9,16667e+01
           380   9,12493e+01   3,80000e+02  -2,26463e+00   2,32299e+00   9,33333e+01
           390   9,28993e+01   3,90000e+02  -2,25069e+00   2,32288e+00   9,50000e+01
           400   9,45728e+01   4,00000e+02  -2,26822e+00   2,32248e+00   9,66667e+01
           410   9,62095e+01   4,10000e+02  -2,27377e+00   2,32196e+00   9,83333e+01
           420   9,78818e+01   4,20000e+02  -2,27004e+00   2,32181e+00   1,00000e+02
           430   9,95511e+01   4,30000e+02  -2,27114e+00   2,32155e+00   1,01667e+02
           440   1,01205e+02   4,40000e+02  -2,29229e+00   2,32104e+00   1,03333e+02
           450   1,02867e+02   4,50000e+02  -2,31836e+00   2,32102e+00   1,05000e+02
           460   1,04548e+02   4,60000e+02  -2,32425e+00   2,32053e+00   1,06667e+02
           470   1,06186e+02   4,70000e+02  -2,34671e+00   2,31974e+00   1,08333e+02
           480   1,07864e+02   4,80000e+02  -2,35866e+00   2,31988e+00   1,10000e+02
           490   1,09532e+02   4,90000e+02  -2,35424e+00   2,32008e+00   1,11667e+02
           500   1,11179e+02   5,00000e+02  -2,33004e+00   2,31957e+00   1,13333e+02
           510   1,12847e+02   5,10000e+02  -2,27956e+00   2,31893e+00   1,15000e+02
           520   1,14521e+02   5,20000e+02  -2,23010e+00   2,31779e+00   1,16667e+02
           530   1,16205e+02   5,30000e+02  -2,19049e+00   2,31693e+00   1,18333e+02
           540   1,17868e+02   5,40000e+02  -2,18585e+00   2,31577e+00   1,20000e+02
           550   1,19544e+02   5,50000e+02  -2,19400e+00   2,31498e+00   1,21667e+02
           560   1,21217e+02   5,60000e+02  -2,20196e+00   2,31444e+00   1,23333e+02
           570   1,22903e+02   5,70000e+02  -2,24593e+00   2,31414e+00   1,25000e+02
           580   1,24557e+02   5,80000e+02  -2,32352e+00   2,31418e+00   1,26667e+02
           590   1,26229e+02   5,90000e+02  -2,37095e+00   2,31388e+00   1,28333e+02
           600   1,27900e+02   6,00000e+02  -2,43041e+00   2,31342e+00   1,30000e+02
           610   1,29587e+02   6,10000e+02  -2,50161e+00   2,31371e+00   1,31667e+02
           620   1,31266e+02   6,20000e+02  -2,57065e+00   2,31335e+00   1,33333e+02
           630   1,32953e+02   6,30000e+02  -2,64326e+00   2,31338e+00   1,35000e+02
           640   1,34635e+02   6,40000e+02  -2,72089e+00   2,31383e+00   1,36667e+02
           650   1,36307e+02   6,50000e+02  -2,79342e+00   2,31374e+00   1,38333e+02
           660   1,37984e+02   6,60000e+02  -2,85111e+00   2,31394e+00   1,40000e+02
           670   1,39675e+02   6,70000e+02  -2,92306e+00   2,31342e+00   1,41667e+02
           680   1,41350e+02   6,80000e+02  -2,99494e+00   2,31298e+00   1,43333e+02
           690   1,43024e+02   6,90000e+02  -3,06435e+00   2,31311e+00   1,45000e+02
           700   1,44711e+02   7,00000e+02  -3,12713e+00   2,31347e+00   1,46667e+02
           710   1,46386e+02   7,10000e+02  -3,17329e+00   2,31382e+00   1,48333e+02
           720   1,48075e+02   7,20000e+02  -3,21833e+00   2,31345e+00   1,50000e+02
           730   1,49758e+02   7,30000e+02  -3,25802e+00   2,31316e+00   1,51667e+02
           740   1,51433e+02   7,40000e+02  -3,31214e+00   2,31322e+00   1,53333e+02
           750   1,53117e+02   7,50000e+02  -3,36932e+00   2,31330e+00   1,55000e+02
           760   1,54808e+02   7,60000e+02  -3,44512e+00   2,31313e+00   1,56667e+02
           770   1,56501e+02   7,70000e+02  -3,50050e+00   2,31338e+00   1,58333e+02
           780   1,58178e+02   7,80000e+02  -3,55607e+00   2,31381e+00   1,60000e+02
           790   1,59853e+02   7,90000e+02  -3,60866e+00   2,31377e+00   1,61667e+02
           800   1,61558e+02   8,00000e+02  -3,64136e+00   2,31312e+00   1,63333e+02
           810   1,63238e+02   8,10000e+02  -3,68570e+00   2,31284e+00   1,65000e+02
           820   1,64917e+02   8,20000e+02  -3,72373e+00   2,31297e+00   1,66667e+02
           830   1,66611e+02   8,30000e+02  -3,76366e+00   2,31317e+00   1,68333e+02
           840   1,68296e+02   8,40000e+02  -3,81080e+00   2,31305e+00   1,70000e+02
           850   1,69981e+02   8,50000e+02  -3,82186e+00   2,31343e+00   1,71667e+02
           860   1,71673e+02   8,60000e+02  -3,83250e+00   2,31257e+00   1,73333e+02
           870   1,73369e+02   8,70000e+02  -3,85427e+00   2,31240e+00   1,75000e+02
           880   1,75049e+02   8,80000e+02  -3,87259e+00   2,31218e+00   1,76667e+02
           890   1,76748e+02   8,90000e+02  -3,91846e+00   2,31214e+00   1,78333e+02
           900   1,78434e+02   9,00000e+02  -3,95394e+00   2,31203e+00   1,80000e+02
           910   1,80130e+02   9,10000e+02  -4,00785e+00   2,31172e+00   1,81667e+02
           920   1,81821e+02   9,20000e+02  -4,05364e+00   2,31163e+00   1,83333e+02
           930   1,83518e+02   9,30000e+02  -4,08552e+00   2,31174e+00   1,85000e+02
           940   1,85208e+02   9,40000e+02  -4,10579e+00   2,31169e+00   1,86667e+02
           950   1,86899e+02   9,50000e+02  -4,13352e+00   2,31103e+00   1,88333e+02
           960   1,88581e+02   9,60000e+02  -4,17672e+00   2,31054e+00   1,90000e+02
           970   1,90267e+02   9,70000e+02  -4,21359e+00   2,31037e+00   1,91667e+02
           980   1,91973e+02   9,80000e+02  -4,25974e+00   2,31053e+00   1,93333e+02
           990   1,93668e+02   9,90000e+02  -4,31236e+00   2,31069e+00   1,95000e+02
          1000   1,95357e+02   1,00000e+03  -4,35134e+00   2,31002e+00   1,96667e+02
          1010   1,97048e+02   1,01000e+03  -4,39504e+00   2,31019e+00   1,98333e+02
          1020   1,98739e+02   1,02000e+03  -4,42889e+00   2,30939e+00   2,00000e+02
          1030   2,00428e+02   1,03000e+03  -4,45528e+00   2,30859e+00   2,01667e+02
          1040   2,02120e+02   1,04000e+03  -4,52507e+00   2,30880e+00   2,03333e+02
          1050   2,03821e+02   1,05000e+03  -4,57815e+00   2,30911e+00   2,05000e+02
          1060   2,05511e+02   1,06000e+03  -4,59725e+00   2,30868e+00   2,06667e+02
          1070   2,07210e+02   1,07000e+03  -4,61046e+00   2,30827e+00   2,08333e+02
          1080   2,08886e+02   1,08000e+03  -4,62463e+00   2,30848e+00   2,10000e+02
          1090   2,10588e+02   1,09000e+03  -4,65052e+00   2,30777e+00   2,11667e+02
          1100   2,12262e+02   1,10000e+03  -4,68314e+00   2,30735e+00   2,13333e+02
          1110   2,13952e+02   1,11000e+03  -4,72189e+00   2,30710e+00   2,15000e+02
          1120   2,15649e+02   1,12000e+03  -4,72425e+00   2,30678e+00   2,16667e+02
          1130   2,17344e+02   1,13000e+03  -4,76573e+00   2,30634e+00   2,18333e+02
          1140   2,19044e+02   1,14000e+03  -4,80597e+00   2,30582e+00   2,20000e+02
          1150   2,20730e+02   1,15000e+03  -4,84845e+00   2,30592e+00   2,21667e+02
          1160   2,22424e+02   1,16000e+03  -4,90074e+00   2,30501e+00   2,23333e+02
          1170   2,24121e+02   1,17000e+03  -4,96547e+00   2,30473e+00   2,25000e+02
          1180   2,25806e+02   1,18000e+03  -4,98580e+00   2,30408e+00   2,26667e+02
          1190   2,27495e+02   1,19000e+03  -4,97768e+00   2,30366e+00   2,28333e+02
          1200   2,29193e+02   1,20000e+03  -4,99084e+00   2,30283e+00   2,30000e+02
          1210   2,30885e+02   1,21000e+03  -4,99759e+00   2,30155e+00   2,31667e+02
          1220   2,32568e+02   1,22000e+03  -4,97780e+00   2,30114e+00   2,33333e+02
          1230   2,34265e+02   1,23000e+03  -4,97591e+00   2,30044e+00   2,35000e+02
          1240   2,35957e+02   1,24000e+03  -4,98320e+00   2,29942e+00   2,36667e+02
          1250   2,37647e+02   1,25000e+03  -5,01506e+00   2,29850e+00   2,38333e+02
          1260   2,39338e+02   1,26000e+03  -5,04123e+00   2,29783e+00   2,40000e+02
          1270   2,41022e+02   1,27000e+03  -5,08847e+00   2,29631e+00   2,41667e+02
          1280   2,42716e+02   1,28000e+03  -5,12475e+00   2,29510e+00   2,43333e+02
          1290   2,44415e+02   1,29000e+03  -5,15143e+00   2,29444e+00   2,45000e+02
          1300   2,46114e+02   1,30000e+03  -5,19066e+00   2,29323e+00   2,46667e+02
          1310   2,47790e+02   1,31000e+03  -5,23853e+00   2,29183e+00   2,48333e+02
          1320   2,49492e+02   1,32000e+03  -5,26277e+00   2,29056e+00   2,50000e+02
          1330   2,51166e+02   1,33000e+03  -5,30522e+00   2,28903e+00   2,51667e+02
          1340   2,52876e+02   1,34000e+03  -5,35012e+00   2,28754e+00   2,53333e+02
          1350   2,54559e+02   1,35000e+03  -5,38697e+00   2,28654e+00   2,55000e+02
          1360   2,56255e+02   1,36000e+03  -5,41340e+00   2,28488e+00   2,56667e+02
          1370   2,57950e+02   1,37000e+03  -5,44520e+00   2,28280e+00   2,58333e+02
          1380   2,59627e+02   1,38000e+03  -5,47336e+00   2,28080e+00   2,60000e+02
          1390   2,61327e+02   1,39000e+03  -5,48967e+00   2,27930e+00   2,61667e+02
          1400   2,63012e+02   1,40000e+03  -5,50184e+00   2,27700e+00   2,63333e+02
          1410   2,64691e+02   1,41000e+03  -5,52170e+00   2,27454e+00   2,65000e+02
          1420   2,66386e+02   1,42000e+03  -5,52162e+00   2,27317e+00   2,66667e+02
          1430   2,68078e+02   1,43000e+03  -5,52482e+00   2,27019e+00   2,68333e+02
          1440   2,69776e+02   1,44000e+03  -5,54132e+00   2,26791e+00   2,70000e+02
          1450   2,71463e+02   1,45000e+03  -5,58025e+00   2,26551e+00   2,71667e+02
          1460   2,73149e+02   1,46000e+03  -5,62552e+00   2,26329e+00   2,73333e+02
          1470   2,74835e+02   1,47000e+03  -5,65255e+00   2,26109e+00   2,75000e+02
          1480   2,76522e+02   1,48000e+03  -5,66696e+00   2,25866e+00   2,76667e+02
          1490   2,78213e+02   1,49000e+03  -5,69322e+00   2,25581e+00   2,78333e+02
          1500   2,79894e+02   1,50000e+03  -5,73725e+00   2,25307e+00   2,80000e+02
          1510   2,81594e+02   1,51000e+03  -5,77828e+00   2,25028e+00   2,81667e+02
          1520   2,83283e+02   1,52000e+03  -5,83466e+00   2,24781e+00   2,83333e+02
          1530   2,84972e+02   1,53000e+03  -5,87587e+00   2,24532e+00   2,85000e+02
          1540   2,86656e+02   1,54000e+03  -5,91174e+00   2,24298e+00   2,86667e+02
          1550   2,88341e+02   1,55000e+03  -5,94724e+00   2,24036e+00   2,88333e+02
          1560   2,90038e+02   1,56000e+03  -5,95209e+00   2,23747e+00   2,90000e+02
          1570   2,91725e+02   1,57000e+03  -5,95490e+00   2,23505e+00   2,91667e+02
          1580   2,93407e+02   1,58000e+03  -6,00363e+00   2,23265e+00   2,93333e+02
          1590   2,95110e+02   1,59000e+03  -6,03806e+00   2,23040e+00   2,95000e+02
          1600   2,96791e+02   1,60000e+03  -6,07671e+00   2,22769e+00   2,96667e+02
          1610   2,98477e+02   1,61000e+03  -6,11360e+00   2,22485e+00   2,98333e+02
          1620   3,00171e+02   1,62000e+03  -6,16094e+00   2,22274e+00   3,00000e+02
          1630   3,01853e+02   1,63000e+03  -6,17614e+00   2,22034e+00   3,01667e+02
          1640   3,03546e+02   1,64000e+03  -6,16339e+00   2,21819e+00   3,03333e+02
          1650   3,05237e+02   1,65000e+03  -6,16376e+00   2,21590e+00   3,05000e+02
          1660   3,06934e+02   1,66000e+03  -6,18319e+00   2,21350e+00   3,06667e+02
          1670   3,08615e+02   1,67000e+03  -6,16798e+00   2,21126e+00   3,08333e+02
          1680   3,10314e+02   1,68000e+03  -6,13943e+00   2,20887e+00   3,10000e+02
          1690   3,11999e+02   1,69000e+03  -6,10337e+00   2,20661e+00   3,11667e+02
          1700   3,13685e+02   1,70000e+03  -6,06630e+00   2,20472e+00   3,13333e+02
          1710   3,15375e+02   1,71000e+03  -6,00886e+00   2,20260e+00   3,15000e+02
          1720   3,17068e+02   1,72000e+03  -5,96558e+00   2,20014e+00   3,16667e+02
          1730   3,18755e+02   1,73000e+03  -5,94457e+00   2,19832e+00   3,18333e+02
          1740   3,20442e+02   1,74000e+03  -5,93124e+00   2,19595e+00   3,20000e+02
          1750   3,22127e+02   1,75000e+03  -5,88876e+00   2,19444e+00   3,21667e+02
          1760   3,23812e+02   1,76000e+03  -5,85472e+00   2,19260e+00   3,23333e+02
          1770   3,25500e+02   1,77000e+03  -5,83305e+00   2,19068e+00   3,25000e+02
          1780   3,27189e+02   1,78000e+03  -5,78839e+00   2,18899e+00   3,26667e+02
          1790   3,28869e+02   1,79000e+03  -5,75500e+00   2,18682e+00   3,28333e+02
          1800   3,30553e+02   1,80000e+03  -5,72900e+00   2,18534e+00   3,30000e+02
          1810   3,32246e+02   1,81000e+03  -5,68723e+00   2,18318e+00   3,31667e+02
          1820   3,33929e+02   1,82000e+03  -5,64441e+00   2,18178e+00   3,33333e+02
          1830   3,35628e+02   1,83000e+03  -5,59865e+00   2,17984e+00   3,35000e+02
          1840   3,37312e+02   1,84000e+03  -5,54197e+00   2,17813e+00   3,36667e+02
          1850   3,39003e+02   1,85000e+03  -5,47673e+00   2,17598e+00   3,38333e+02
          1860   3,40680e+02   1,86000e+03  -5,43917e+00   2,17408e+00   3,40000e+02
          1870   3,42372e+02   1,87000e+03  -5,39812e+00   2,17218e+00   3,41667e+02
          1880   3,44057e+02   1,88000e+03  -5,34151e+00   2,17054e+00   3,43333e+02
          1890   3,45754e+02   1,89000e+03  -5,27604e+00   2,16889e+00   3,45000e+02
          1900   3,47431e+02   1,90000e+03  -5,18843e+00   2,16696e+00   3,46667e+02
          1910   3,49128e+02   1,91000e+03  -5,11998e+00   2,16520e+00   3,48333e+02
          1920   3,50811e+02   1,92000e+03  -5,04611e+00   2,16312e+00   3,50000e+02
          1930   3,52497e+02   1,93000e+03  -4,97235e+00   2,16148e+00   3,51667e+02
          1940   3,54191e+02   1,94000e+03  -4,89702e+00   2,15981e+00   3,53333e+02
          1950   3,55864e+02   1,95000e+03  -4,81586e+00   2,15791e+00   3,55000e+02
          1960   3,57546e+02   1,96000e+03  -4,74241e+00   2,15582e+00   3,56667e+02
          1970   3,59244e+02   1,97000e+03  -4,67187e+00   2,15441e+00   3,58333e+02
          1980   3,60916e+02   1,98000e+03  -4,59519e+00   2,15263e+00   3,60000e+02
          1990   3,62603e+02   1,99000e+03  -4,51266e+00   2,15061e+00   3,61667e+02
          2000   3,64291e+02   2,00000e+03  -4,42699e+00   2,14863e+00   3,63333e+02
          2010   3,65966e+02   2,01000e+03  -4,34926e+00   2,14676e+00   3,65000e+02
          2020   3,67650e+02   2,02000e+03  -4,30204e+00   2,14466e+00   3,66667e+02
          2030   3,69340e+02   2,03000e+03  -4,24506e+00   2,14281e+00   3,68333e+02
          2040   3,71023e+02   2,04000e+03  -4,18841e+00   2,14093e+00   3,70000e+02
          2050   3,72707e+02   2,05000e+03  -4,13031e+00   2,13910e+00   3,71667e+02
          2060   3,74398e+02   2,06000e+03  -4,05731e+00   2,13699e+00   3,73333e+02
          2070   3,76083e+02   2,07000e+03  -3,98489e+00   2,13505e+00   3,75000e+02
          2080   3,77767e+02   2,08000e+03  -3,90185e+00   2,13316e+00   3,76667e+02
          2090   3,79453e+02   2,09000e+03  -3,82168e+00   2,13097e+00   3,78333e+02
          2100   3,81139e+02   2,10000e+03  -3,77337e+00   2,12891e+00   3,80000e+02
          2110   3,82815e+02   2,11000e+03  -3,70246e+00   2,12728e+00   3,81667e+02
          2120   3,84493e+02   2,12000e+03  -3,63652e+00   2,12440e+00   3,83333e+02
          2130   3,86189e+02   2,13000e+03  -3,57497e+00   2,12210e+00   3,85000e+02
          2140   3,87863e+02   2,14000e+03  -3,50591e+00   2,12051e+00   3,86667e+02
          2150   3,89547e+02   2,15000e+03  -3,41924e+00   2,11812e+00   3,88333e+02
          2160   3,91229e+02   2,16000e+03  -3,30980e+00   2,11545e+00   3,90000e+02
          2170   3,92913e+02   2,17000e+03  -3,22283e+00   2,11340e+00   3,91667e+02
          2180   3,94597e+02   2,18000e+03  -3,12518e+00   2,11142e+00   3,93333e+02
          2190   3,96286e+02   2,19000e+03  -3,06118e+00   2,10907e+00   3,95000e+02
          2200   3,97972e+02   2,20000e+03  -2,96122e+00   2,10687e+00   3,96667e+02
          2210   3,99646e+02   2,21000e+03  -2,85257e+00   2,10439e+00   3,98333e+02
          2220   4,01334e+02   2,22000e+03  -2,78306e+00   2,10214e+00   4,00000e+02
          2230   4,03015e+02   2,23000e+03  -2,69150e+00   2,10003e+00   4,01667e+02
          2240   4,04686e+02   2,24000e+03  -2,60048e+00   2,09731e+00   4,03333e+02
          2250   4,06367e+02   2,25000e+03  -2,49292e+00   2,09508e+00   4,05000e+02
          2260   4,08059e+02   2,26000e+03  -2,38111e+00   2,09248e+00   4,06667e+02
          2270   4,09734e+02   2,27000e+03  -2,29406e+00   2,09016e+00   4,08333e+02
          2280   4,11417e+02   2,28000e+03  -2,21178e+00   2,08772e+00   4,10000e+02
          2290   4,13105e+02   2,29000e+03  -2,13534e+00   2,08518e+00   4,11667e+02
          2300   4,14785e+02   2,30000e+03  -2,03292e+00   2,08293e+00   4,13333e+02
          2310   4,16473e+02   2,31000e+03  -1,90565e+00   2,08032e+00   4,15000e+02
          2320   4,18137e+02   2,32000e+03  -1,79086e+00   2,07784e+00   4,16667e+02
          2330   4,19838e+02   2,33000e+03  -1,64691e+00   2,07542e+00   4,18333e+02
          2340   4,21518e+02   2,34000e+03  -1,50760e+00   2,07237e+00   4,20000e+02
          2350   4,23189e+02   2,35000e+03  -1,40133e+00   2,07068e+00   4,21667e+02
          2360   4,24882e+02   2,36000e+03  -1,29890e+00   2,06804e+00   4,23333e+02
          2370   4,26555e+02   2,37000e+03  -1,16487e+00   2,06489e+00   4,25000e+02
          2380   4,28234e+02   2,38000e+03  -1,03979e+00   2,06219e+00   4,26667e+02
          2390   4,29911e+02   2,39000e+03  -9,53506e-01   2,05918e+00   4,28333e+02
          2400   4,31591e+02   2,40000e+03  -8,39675e-01   2,05754e+00   4,30000e+02
          2410   4,33274e+02   2,41000e+03  -7,23844e-01   2,05455e+00   4,31667e+02
          2420   4,34960e+02   2,42000e+03  -5,67982e-01   2,05193e+00   4,33333e+02
          2430   4,36633e+02   2,43000e+03  -4,56079e-01   2,04878e+00   4,35000e+02
          2440   4,38315e+02   2,44000e+03  -3,25440e-01   2,04587e+00   4,36667e+02
          2450   4,39988e+02   2,45000e+03  -1,87344e-01   2,04281e+00   4,38333e+02
          2460   4,41672e+02   2,46000e+03  -4,96867e-02   2,04050e+00   4,40000e+02
          2470   4,43343e+02   2,47000e+03   7,53679e-02   2,03786e+00   4,41667e+02
          2480   4,45028e+02   2,48000e+03   1,92081e-01   2,03495e+00   4,43333e+02
          2490   4,46714e+02   2,49000e+03   3,31865e-01   2,03249e+00   4,45000e+02
          2500   4,48379e+02   2,50000e+03   4,68257e-01   2,02933e+00   4,46667e+02
          2510   4,50057e+02   2,51000e+03   6,07649e-01   2,02695e+00   4,48333e+02
          2520   4,51739e+02   2,52000e+03   7,30542e-01   2,02428e+00   4,50000e+02
          2530   4,53411e+02   2,53000e+03   8,66970e-01   2,02106e+00   4,51667e+02
          2540   4,55087e+02   2,54000e+03   1,01099e+00   2,01823e+00   4,53333e+02
          2550   4,56763e+02   2,55000e+03   1,16731e+00   2,01576e+00   4,55000e+02
          2560   4,58439e+02   2,56000e+03   1,30284e+00   2,01264e+00   4,56667e+02
          2570   4,60128e+02   2,57000e+03   1,46191e+00   2,00986e+00   4,58333e+02
          2580   4,61791e+02   2,58000e+03   1,64683e+00   2,00701e+00   4,60000e+02
          2590   4,63472e+02   2,59000e+03   1,79093e+00   2,00378e+00   4,61667e+02
          2600   4,65149e+02   2,60000e+03   1,93014e+00   2,00073e+00   4,63333e+02
          2610   4,66829e+02   2,61000e+03   2,04372e+00   1,99791e+00   4,65000e+02
          2620   4,68501e+02   2,62000e+03   2,17886e+00   1,99498e+00   4,66667e+02
          2630   4,70190e+02   2,63000e+03   2,34481e+00   1,99217e+00   4,68333e+02
          2640   4,71850e+02   2,64000e+03   2,52884e+00   1,98912e+00   4,70000e+02
          2650   4,73541e+02   2,65000e+03   2,67046e+00   1,98552e+00   4,71667e+02
          2660   4,75207e+02   2,66000e+03   2,80226e+00   1,98292e+00   4,73333e+02
          2670   4,76881e+02   2,67000e+03   2,94970e+00   1,97988e+00   4,75000e+02
          2680   4,78553e+02   2,68000e+03   3,11915e+00   1,97718e+00   4,76667e+02
          2690   4,80237e+02   2,69000e+03   3,26003e+00   1,97381e+00   4,78333e+02
          2700   4,81919e+02   2,70000e+03   3,41825e+00   1,97034e+00   4,80000e+02
          2710   4,83592e+02   2,71000e+03   3,56654e+00   1,96722e+00   4,81667e+02
          2720   4,85259e+02   2,72000e+03   3,75345e+00   1,96418e+00   4,83333e+02
          2730   4,86945e+02   2,73000e+03   3,92890e+00   1,96079e+00   4,85000e+02
          2740   4,88613e+02   2,74000e+03   4,05927e+00   1,95765e+00   4,86667e+02
          2750   4,90294e+02   2,75000e+03   4,20964e+00   1,95474e+00   4,88333e+02
          2760   4,91962e+02   2,76000e+03   4,37009e+00   1,95170e+00   4,90000e+02
          2770   4,93637e+02   2,77000e+03   4,54602e+00   1,94818e+00   4,91667e+02
          2780   4,95317e+02   2,78000e+03   4,68853e+00   1,94431e+00   4,93333e+02
          2790   4,96994e+02   2,79000e+03   4,83839e+00   1,94136e+00   4,95000e+02
          2800   4,98675e+02   2,80000e+03   4,98487e+00   1,93785e+00   4,96667e+02
          2810   5,00358e+02   2,81000e+03   5,14433e+00   1,93463e+00   4,98333e+02
          2820   5,02022e+02   2,82000e+03   5,26492e+00   1,93118e+00   5,00000e+02
          2830   5,03702e+02   2,83000e+03   5,40330e+00   1,92766e+00   5,01667e+02
          2840   5,05384e+02   2,84000e+03   5,58259e+00   1,92456e+00   5,03333e+02
          2850   5,07051e+02   2,85000e+03   5,71692e+00   1,92028e+00   5,05000e+02
          2860   5,08732e+02   2,86000e+03   5,84335e+00   1,91696e+00   5,06667e+02
          2870   5,10416e+02   2,87000e+03   6,01410e+00   1,91340e+00   5,08333e+02
          2880   5,12097e+02   2,88000e+03   6,15381e+00   1,90989e+00   5,10000e+02
          2890   5,13774e+02   2,89000e+03   6,29228e+00   1,90586e+00   5,11667e+02
          2900   5,15453e+02   2,90000e+03   6,41554e+00   1,90192e+00   5,13333e+02
          2910   5,17134e+02   2,91000e+03   6,55187e+00   1,89835e+00   5,15000e+02
          2920   5,18819e+02   2,92000e+03   6,69921e+00   1,89464e+00   5,16667e+02
          2930   5,20488e+02   2,93000e+03   6,82550e+00   1,88976e+00   5,18333e+02
          2940   5,22164e+02   2,94000e+03   6,90422e+00   1,88579e+00   5,20000e+02
          2950   5,23860e+02   2,95000e+03   7,00310e+00   1,88159e+00   5,21667e+02
          2960   5,25538e+02   2,96000e+03   7,08196e+00   1,87761e+00   5,23333e+02
          2970   5,27210e+02   2,97000e+03   7,16938e+00   1,87342e+00   5,25000e+02
          2980   5,28891e+02   2,98000e+03   7,25991e+00   1,86841e+00   5,26667e+02
          2990   5,30564e+02   2,99000e+03   7,33710e+00   1,86332e+00   5,28333e+02
          3000   5,32251e+02   3,00000e+03   7,42612e+00   1,85843e+00   5,30000e+02
          3010   5,33953e+02   3,01000e+03   7,51467e+00   1,85334e+00   5,31667e+02
          3020   5,35624e+02   3,02000e+03   7,60083e+00   1,84861e+00   5,33333e+02
          3030   5,37298e+02   3,03000e+03   7,70603e+00   1,84315e+00   5,35000e+02
          3040   5,38976e+02   3,04000e+03   7,81940e+00   1,83736e+00   5,36667e+02
          3050   5,40668e+02   3,05000e+03   7,85668e+00   1,83151e+00   5,38333e+02
          3060   5,42335e+02   3,06000e+03   7,89307e+00   1,82584e+00   5,40000e+02
          3070   5,44019e+02   3,07000e+03   7,92465e+00   1,82022e+00   5,41667e+02
          3080   5,45711e+02   3,08000e+03   7,97354e+00   1,81509e+00   5,43333e+02
          3090   5,47384e+02   3,09000e+03   8,05940e+00   1,80872e+00   5,45000e+02
          3100   5,49068e+02   3,10000e+03   8,10182e+00   1,80225e+00   5,46667e+02
          3110   5,50748e+02   3,11000e+03   8,15894e+00   1,79546e+00   5,48333e+02
          3120   5,52425e+02   3,12000e+03   8,16731e+00   1,78928e+00   5,50000e+02
          3130   5,54113e+02   3,13000e+03   8,19352e+00   1,78294e+00   5,51667e+02
          3140   5,55798e+02   3,14000e+03   8,23947e+00   1,77632e+00   5,53333e+02
          3150   5,57478e+02   3,15000e+03   8,29943e+00   1,76930e+00   5,55000e+02
          3160   5,59159e+02   3,16000e+03   8,33762e+00   1,76195e+00   5,56667e+02
          3170   5,60839e+02   3,17000e+03   8,35060e+00   1,75427e+00   5,58333e+02
          3180   5,62526e+02   3,18000e+03   8,36909e+00   1,74714e+00   5,60000e+02
          3190   5,64205e+02   3,19000e+03   8,35090e+00   1,73953e+00   5,61667e+02
          3200   5,65882e+02   3,20000e+03   8,32281e+00   1,73160e+00   5,63333e+02
          3210   5,67558e+02   3,21000e+03   8,32326e+00   1,72325e+00   5,65000e+02
          3220   5,69244e+02   3,22000e+03   8,30184e+00   1,71565e+00   5,66667e+02
          3230   5,70925e+02   3,23000e+03   8,26947e+00   1,70738e+00   5,68333e+02
          3240   5,72615e+02   3,24000e+03   8,22212e+00   1,69895e+00   5,70000e+02
          3250   5,74310e+02   3,25000e+03   8,20816e+00   1,69043e+00   5,71667e+02
          3260   5,75977e+02   3,26000e+03   8,18507e+00   1,68135e+00   5,73333e+02
          3270   5,77668e+02   3,27000e+03   8,12203e+00   1,67194e+00   5,75000e+02
          3280   5,79343e+02   3,28000e+03   8,01949e+00   1,66201e+00   5,76667e+02
          3290   5,81019e+02   3,29000e+03   7,88227e+00   1,65271e+00   5,78333e+02
          3300   5,82703e+02   3,30000e+03   7,75317e+00   1,64255e+00   5,80000e+02
          3310   5,84376e+02   3,31000e+03   7,59793e+00   1,63214e+00   5,81667e+02
          3320   5,86050e+02   3,32000e+03   7,40586e+00   1,62160e+00   5,83333e+02
          3330   5,87735e+02   3,33000e+03   7,20620e+00   1,61024e+00   5,85000e+02
          3340   5,89418e+02   3,34000e+03   7,03708e+00   1,59860e+00   5,86667e+02
          3350   5,91096e+02   3,35000e+03   6,87243e+00   1,58725e+00   5,88333e+02
          3360   5,92779e+02   3,36000e+03   6,70619e+00   1,57526e+00   5,90000e+02
          3370   5,94452e+02   3,37000e+03   6,46986e+00   1,56235e+00   5,91667e+02
          3380   5,96141e+02   3,38000e+03   6,25667e+00   1,54919e+00   5,93333e+02
          3390   5,97813e+02   3,39000e+03   6,02013e+00   1,53622e+00   5,95000e+02
          3400   5,99493e+02   3,40000e+03   5,81886e+00   1,52316e+00   5,96667e+02
          3410   6,01176e+02   3,41000e+03   5,61471e+00   1,50881e+00   5,98333e+02
          3420   6,02858e+02   3,42000e+03   5,42109e+00   1,49474e+00   6,00000e+02
          3430   6,04532e+02   3,43000e+03   5,24089e+00   1,48084e+00   6,01667e+02
          3440   6,06217e+02   3,44000e+03   5,12390e+00   1,46629e+00   6,03333e+02
          3450   6,07893e+02   3,45000e+03   5,04091e+00   1,45124e+00   6,05000e+02
          3460   6,09596e+02   3,46000e+03   5,01079e+00   1,43608e+00   6,06667e+02
          3470   6,11268e+02   3,47000e+03   5,02647e+00   1,42085e+00   6,08333e+02
          3480   6,12954e+02   3,48000e+03   5,12746e+00   1,40573e+00   6,10000e+02
          3490   6,14646e+02   3,49000e+03   5,29955e+00   1,39030e+00   6,11667e+02
          3500   6,16321e+02   3,50000e+03   5,51259e+00   1,37488e+00   6,13333e+02
          3510   6,18012e+02   3,51000e+03   5,79520e+00   1,36008e+00   6,15000e+02
          3520   6,19703e+02   3,52000e+03   6,13470e+00   1,34509e+00   6,16667e+02
          3530   6,21389e+02   3,53000e+03   6,59000e+00   1,33050e+00   6,18333e+02
          3540   6,23073e+02   3,54000e+03   7,08215e+00   1,31578e+00   6,20000e+02
          3550   6,24761e+02   3,55000e+03   7,65344e+00   1,30143e+00   6,21667e+02
          3560   6,26446e+02   3,56000e+03   8,24370e+00   1,28812e+00   6,23333e+02
          3570   6,28122e+02   3,57000e+03   8,89604e+00   1,27448e+00   6,25000e+02
          3580   6,29817e+02   3,58000e+03   9,54579e+00   1,26188e+00   6,26667e+02
          3590   6,31491e+02   3,59000e+03   1,02275e+01   1,24943e+00   6,28333e+02
          3600   6,33186e+02   3,60000e+03   1,09070e+01   1,23756e+00   6,30000e+02
          3610   6,34876e+02   3,61000e+03   1,15765e+01   1,22600e+00   6,31667e+02
          3620   6,36555e+02   3,62000e+03   1,22530e+01   1,21483e+00   6,33333e+02
          3630   6,38237e+02   3,63000e+03   1,28564e+01   1,20358e+00   6,35000e+02
          3640   6,39918e+02   3,64000e+03   1,34527e+01   1,19333e+00   6,36667e+02
          3650   6,41605e+02   3,65000e+03   1,40636e+01   1,18416e+00   6,38333e+02
          3660   6,43290e+02   3,66000e+03   1,46372e+01   1,17436e+00   6,40000e+02
          3670   6,44969e+02   3,67000e+03   1,51466e+01   1,16461e+00   6,41667e+02
          3680   6,46651e+02   3,68000e+03   1,55891e+01   1,15523e+00   6,43333e+02
          3690   6,48347e+02   3,69000e+03   1,59913e+01   1,14690e+00   6,45000e+02
          3700   6,50021e+02   3,70000e+03   1,63747e+01   1,13821e+00   6,46667e+02
          3710   6,51701e+02   3,71000e+03   1,66965e+01   1,12939e+00   6,48333e+02
          3720   6,53383e+02   3,72000e+03   1,69919e+01   1,12095e+00   6,50000e+02
          3730   6,55071e+02   3,73000e+03   1,72782e+01   1,11193e+00   6,51667e+02
          3740   6,56752e+02   3,74000e+03   1,74975e+01   1,10340e+00   6,53333e+02
          3750   6,58433e+02   3,75000e+03   1,77039e+01   1,09566e+00   6,55000e+02
          3760   6,60124e+02   3,76000e+03   1,78667e+01   1,08704e+00   6,56667e+02
          3770   6,61801e+02   3,77000e+03   1,79958e+01   1,07879e+00   6,58333e+02
          3780   6,63476e+02   3,78000e+03   1,80527e+01   1,06997e+00   6,60000e+02
          3790   6,65167e+02   3,79000e+03   1,81426e+01   1,06167e+00   6,61667e+02
          3800   6,66837e+02   3,80000e+03   1,81905e+01   1,05281e+00   6,63333e+02
          3810   6,68518e+02   3,81000e+03   1,82146e+01   1,04381e+00   6,65000e+02
          3820   6,70206e+02   3,82000e+03   1,81801e+01   1,03543e+00   6,66667e+02
          3830   6,71873e+02   3,83000e+03   1,81071e+01   1,02607e+00   6,68333e+02
          3840   6,73559e+02   3,84000e+03   1,81172e+01   1,01743e+00   6,70000e+02
          3850   6,75235e+02   3,85000e+03   1,80931e+01   1,00788e+00   6,71667e+02
          3860   6,76931e+02   3,86000e+03   1,79715e+01   9,98941e-01   6,73333e+02
          3870   6,78599e+02   3,87000e+03   1,78625e+01   9,89200e-01   6,75000e+02
          3880   6,80290e+02   3,88000e+03   1,77403e+01   9,79877e-01   6,76667e+02
          3890   6,81959e+02   3,89000e+03   1,75971e+01   9,69489e-01   6,78333e+02
          3900   6,83638e+02   3,90000e+03   1,74510e+01   9,59518e-01   6,80000e+02
          3910   6,85326e+02   3,91000e+03   1,72633e+01   9,48618e-01   6,81667e+02
          3920   6,87004e+02   3,92000e+03   1,70684e+01   9,38000e-01   6,83333e+02
          3930   6,88679e+02   3,93000e+03   1,68827e+01   9,27275e-01   6,85000e+02
          3940   6,90354e+02   3,94000e+03   1,66304e+01   9,16304e-01   6,86667e+02
          3950   6,92043e+02   3,95000e+03   1,63566e+01   9,05657e-01   6,88333e+02
          3960   6,93727e+02   3,96000e+03   1,60805e+01   8,94387e-01   6,90000e+02
          3970   6,95401e+02   3,97000e+03   1,57782e+01   8,83233e-01   6,91667e+02
          3980   6,97083e+02   3,98000e+03   1,54677e+01   8,71335e-01   6,93333e+02
          3990   6,98760e+02   3,99000e+03   1,52051e+01   8,59587e-01   6,95000e+02
          4000   7,00438e+02   4,00000e+03   1,49089e+01   8,47072e-01   6,96667e+02
          4010   7,02116e+02   4,01000e+03   1,45950e+01   8,34667e-01   6,98333e+02
          4020   7,03796e+02   4,02000e+03   1,42430e+01   8,22143e-01   7,00000e+02
          4030   7,05470e+02   4,03000e+03   1,38361e+01   8,09533e-01   7,01667e+02
          4040   7,07158e+02   4,04000e+03   1,34644e+01   7,96621e-01   7,03333e+02
          4050   7,08835e+02   4,05000e+03   1,31312e+01   7,83859e-01   7,05000e+02
          4060   7,10512e+02   4,06000e+03   1,28163e+01   7,70697e-01   7,06667e+02
          4070   7,12195e+02   4,07000e+03   1,25294e+01   7,57903e-01   7,08333e+02
          4080   7,13876e+02   4,08000e+03   1,22037e+01   7,44346e-01   7,10000e+02
          4090   7,15557e+02   4,09000e+03   1,18688e+01   7,30972e-01   7,11667e+02
          4100   7,17230e+02   4,10000e+03   1,15597e+01   7,16949e-01   7,13333e+02
          4110   7,18920e+02   4,11000e+03   1,12323e+01   7,03313e-01   7,15000e+02
          4120   7,20596e+02   4,12000e+03   1,08580e+01   6,90021e-01   7,16667e+02
          4130   7,22285e+02   4,13000e+03   1,05087e+01   6,76863e-01   7,18333e+02
          4140   7,23957e+02   4,14000e+03   1,02607e+01   6,63791e-01   7,20000e+02
          4150   7,25630e+02   4,15000e+03   1,00225e+01   6,50225e-01   7,21667e+02
          4160   7,27314e+02   4,16000e+03   9,76648e+00   6,36970e-01   7,23333e+02
          4170   7,28989e+02   4,17000e+03   9,46630e+00   6,24175e-01   7,25000e+02
          4180   7,30678e+02   4,18000e+03   9,26179e+00   6,11675e-01   7,26667e+02
          4190   7,32370e+02   4,19000e+03   9,12151e+00   5,99317e-01   7,28333e+02
          4200   7,34045e+02   4,20000e+03   8,99504e+00   5,87421e-01   7,30000e+02
          4210   7,35713e+02   4,21000e+03   8,86709e+00   5,74861e-01   7,31667e+02
          4220   7,37394e+02   4,22000e+03   8,78413e+00   5,62827e-01   7,33333e+02
          4230   7,39078e+02   4,23000e+03   8,68231e+00   5,51008e-01   7,35000e+02
          4240   7,40757e+02   4,24000e+03   8,65333e+00   5,40310e-01   7,36667e+02
          4250   7,42450e+02   4,25000e+03   8,65507e+00   5,29564e-01   7,38333e+02
          4260   7,44128e+02   4,26000e+03   8,60745e+00   5,19145e-01   7,40000e+02
          4270   7,45807e+02   4,27000e+03   8,62393e+00   5,09500e-01   7,41667e+02
          4280   7,47495e+02   4,28000e+03   8,62154e+00   4,99701e-01   7,43333e+02
          4290   7,49175e+02   4,29000e+03   8,61686e+00   4,90980e-01   7,45000e+02
          4300   7,50867e+02   4,30000e+03   8,62683e+00   4,82264e-01   7,46667e+02
          4310   7,52539e+02   4,31000e+03   8,62951e+00   4,73875e-01   7,48333e+02
          4320   7,54228e+02   4,32000e+03   8,68897e+00   4,66372e-01   7,50000e+02
          4330   7,55914e+02   4,33000e+03   8,76693e+00   4,58208e-01   7,51667e+02
          4340   7,57588e+02   4,34000e+03   8,84945e+00   4,50936e-01   7,53333e+02
          4350   7,59281e+02   4,35000e+03   8,86683e+00   4,43663e-01   7,55000e+02
          4360   7,60970e+02   4,36000e+03   8,87802e+00   4,37175e-01   7,56667e+02
          4370   7,62648e+02   4,37000e+03   8,90006e+00   4,30853e-01   7,58333e+02
          4380   7,64332e+02   4,38000e+03   8,96351e+00   4,24835e-01   7,60000e+02
          4390   7,66017e+02   4,39000e+03   9,02239e+00   4,18685e-01   7,61667e+02
          4400   7,67709e+02   4,40000e+03   9,03152e+00   4,13835e-01   7,63333e+02
          4410   7,69384e+02   4,41000e+03   9,00192e+00   4,08518e-01   7,65000e+02
          4420   7,71066e+02   4,42000e+03   8,97654e+00   4,03459e-01   7,66667e+02
          4430   7,72763e+02   4,43000e+03   8,97040e+00   3,98644e-01   7,68333e+02
          4440   7,74443e+02   4,44000e+03   8,93514e+00   3,94251e-01   7,70000e+02
          4450   7,76128e+02   4,45000e+03   8,91374e+00   3,89319e-01   7,71667e+02
          4460   7,77810e+02   4,46000e+03   8,92229e+00   3,85448e-01   7,73333e+02
          4470   7,79505e+02   4,47000e+03   8,89323e+00   3,80971e-01   7,75000e+02
          4480   7,81185e+02   4,48000e+03   8,88621e+00   3,77736e-01   7,76667e+02
          4490   7,82881e+02   4,49000e+03   8,94359e+00   3,74330e-01   7,78333e+02
          4500   7,84574e+02   4,50000e+03   8,97250e+00   3,71011e-01   7,80000e+02
          4510   7,86252e+02   4,51000e+03   9,04092e+00   3,67066e-01   7,81667e+02
          4520   7,87945e+02   4,52000e+03   9,08276e+00   3,64400e-01   7,83333e+02
          4530   7,89639e+02   4,53000e+03   9,11405e+00   3,61485e-01   7,85000e+02
          4540   7,91319e+02   4,54000e+03   9,15830e+00   3,58789e-01   7,86667e+02
          4550   7,93009e+02   4,55000e+03   9,12724e+00   3,56027e-01   7,88333e+02
          4560   7,94698e+02   4,56000e+03   9,13267e+00   3,53332e-01   7,90000e+02
          4570   7,96375e+02   4,57000e+03   9,14996e+00   3,51384e-01   7,91667e+02
          4580   7,98055e+02   4,58000e+03   9,18808e+00   3,49127e-01   7,93333e+02
          4590   7,99754e+02   4,59000e+03   9,19221e+00   3,47461e-01   7,95000e+02
          4600   8,01443e+02   4,60000e+03   9,22131e+00   3,45131e-01   7,96667e+02
          4610   8,03132e+02   4,61000e+03   9,27570e+00   3,43316e-01   7,98333e+02
          4620   8,04805e+02   4,62000e+03   9,34769e+00   3,41396e-01   8,00000e+02
          4630   8,06500e+02   4,63000e+03   9,34072e+00   3,39312e-01   8,01667e+02
          4640   8,08177e+02   4,64000e+03   9,34781e+00   3,38457e-01   8,03333e+02
          4650   8,09883e+02   4,65000e+03   9,39085e+00   3,37282e-01   8,05000e+02
          4660   8,11575e+02   4,66000e+03   9,44838e+00   3,35719e-01   8,06667e+02
          4670   8,13257e+02   4,67000e+03   9,54178e+00   3,34742e-01   8,08333e+02
          4680   8,14946e+02   4,68000e+03   9,60904e+00   3,33041e-01   8,10000e+02
          4690   8,16633e+02   4,69000e+03   9,68515e+00   3,32607e-01   8,11667e+02
          4700   8,18327e+02   4,70000e+03   9,76526e+00   3,31021e-01   8,13333e+02
          4710   8,20017e+02   4,71000e+03   9,79974e+00   3,30800e-01   8,15000e+02
          4720   8,21694e+02   4,72000e+03   9,83217e+00   3,29315e-01   8,16667e+02
          4730   8,23390e+02   4,73000e+03   9,84382e+00   3,28816e-01   8,18333e+02
          4740   8,25071e+02   4,74000e+03   9,87778e+00   3,28403e-01   8,20000e+02
          4750   8,26766e+02   4,75000e+03   9,89828e+00   3,27841e-01   8,21667e+02
          4760   8,28452e+02   4,76000e+03   9,93061e+00   3,27064e-01   8,23333e+02
          4770   8,30144e+02   4,77000e+03   9,95422e+00   3,25975e-01   8,25000e+02
          4780   8,31820e+02   4,78000e+03   9,98729e+00   3,25798e-01   8,26667e+02
          4790   8,33528e+02   4,79000e+03   1,00372e+01   3,25119e-01   8,28333e+02
          4800   8,35206e+02   4,80000e+03   1,00612e+01   3,24815e-01   8,30000e+02
          4810   8,36886e+02   4,81000e+03   1,01198e+01   3,24526e-01   8,31667e+02
          4820   8,38588e+02   4,82000e+03   1,01182e+01   3,23869e-01   8,33333e+02
          4830   8,40278e+02   4,83000e+03   1,01572e+01   3,23546e-01   8,35000e+02
          4840   8,41964e+02   4,84000e+03   1,01918e+01   3,22874e-01   8,36667e+02
          4850   8,43658e+02   4,85000e+03   1,02155e+01   3,22648e-01   8,38333e+02
          4860   8,45347e+02   4,86000e+03   1,02388e+01   3,21906e-01   8,40000e+02
          4870   8,47024e+02   4,87000e+03   1,02871e+01   3,21786e-01   8,41667e+02
          4880   8,48730e+02   4,88000e+03   1,02935e+01   3,21768e-01   8,43333e+02
          4890   8,50409e+02   4,89000e+03   1,03359e+01   3,21807e-01   8,45000e+02
          4900   8,52107e+02   4,90000e+03   1,03663e+01   3,21743e-01   8,46667e+02
          4910   8,53811e+02   4,91000e+03   1,03772e+01   3,20983e-01   8,48333e+02
          4920   8,55500e+02   4,92000e+03   1,05000e+01   3,21698e-01   8,50000e+02
          4930   8,57196e+02   4,93000e+03   1,06102e+01   3,21270e-01   8,51667e+02
          4940   8,58890e+02   4,94000e+03   1,06808e+01   3,20909e-01   8,53333e+02
          4950   8,60572e+02   4,95000e+03   1,07157e+01   3,20841e-01   8,55000e+02
          4960   8,62274e+02   4,96000e+03   1,07834e+01   3,20801e-01   8,56667e+02
          4970   8,63956e+02   4,97000e+03   1,08541e+01   3,20626e-01   8,58333e+02
          4980   8,65656e+02   4,98000e+03   1,09064e+01   3,19898e-01   8,60000e+02
          4990   8,67354e+02   4,99000e+03   1,09875e+01   3,20116e-01   8,61667e+02
          5000   8,69038e+02   5,00000e+03   1,10702e+01   3,20591e-01   8,63333e+02
          5010   8,70737e+02   5,01000e+03   1,11655e+01   3,19884e-01   8,65000e+02
          5020   8,72439e+02   5,02000e+03   1,12445e+01   3,20523e-01   8,66667e+02
          5030   8,74138e+02   5,03000e+03   1,13139e+01   3,20268e-01   8,68333e+02
          5040   8,75818e+02   5,04000e+03   1,13842e+01   3,19826e-01   8,70000e+02
          5050   8,77541e+02   5,05000e+03   1,14156e+01   3,19554e-01   8,71667e+02
          5060   8,79240e+02   5,06000e+03   1,14544e+01   3,19269e-01   8,73333e+02
          5070   8,80934e+02   5,07000e+03   1,15132e+01   3,19277e-01   8,75000e+02
          5080   8,82625e+02   5,08000e+03   1,15725e+01   3,19387e-01   8,76667e+02
          5090   8,84320e+02   5,09000e+03   1,16097e+01   3,19652e-01   8,78333e+02
          5100   8,86019e+02   5,10000e+03   1,17198e+01   3,18910e-01   8,80000e+02
          5110   8,87720e+02   5,11000e+03   1,17584e+01   3,18790e-01   8,81667e+02
          5120   8,89401e+02   5,12000e+03   1,18410e+01   3,18950e-01   8,83333e+02
          5130   8,91098e+02   5,13000e+03   1,19473e+01   3,18771e-01   8,85000e+02
          5140   8,92797e+02   5,14000e+03   1,20461e+01   3,18023e-01   8,86667e+02
          5150   8,94491e+02   5,15000e+03   1,21792e+01   3,18598e-01   8,88333e+02
          5160   8,96173e+02   5,16000e+03   1,22957e+01   3,18786e-01   8,90000e+02
          5170   8,97877e+02   5,17000e+03   1,23579e+01   3,18080e-01   8,91667e+02
          5180   8,99571e+02   5,18000e+03   1,23800e+01   3,18590e-01   8,93333e+02
          5190   9,01264e+02   5,19000e+03   1,24204e+01   3,18787e-01   8,95000e+02
          5200   9,02955e+02   5,20000e+03   1,24459e+01   3,18114e-01   8,96667e+02
          5210   9,04654e+02   5,21000e+03   1,24817e+01   3,17809e-01   8,98333e+02
          5220   9,06354e+02   5,22000e+03   1,25091e+01   3,17998e-01   9,00000e+02
          5230   9,08042e+02   5,23000e+03   1,26132e+01   3,17812e-01   9,01667e+02
          5240   9,09745e+02   5,24000e+03   1,26254e+01   3,17711e-01   9,03333e+02
          5250   9,11439e+02   5,25000e+03   1,26134e+01   3,17402e-01   9,05000e+02
          5260   9,13129e+02   5,26000e+03   1,26324e+01   3,17437e-01   9,06667e+02
          5270   9,14828e+02   5,27000e+03   1,26683e+01   3,16846e-01   9,08333e+02
          5280   9,16510e+02   5,28000e+03   1,27167e+01   3,17550e-01   9,10000e+02
          5290   9,18213e+02   5,29000e+03   1,27003e+01   3,17771e-01   9,11667e+02
          5300   9,19917e+02   5,30000e+03   1,26793e+01   3,17056e-01   9,13333e+02
          5310   9,21620e+02   5,31000e+03   1,26759e+01   3,17673e-01   9,15000e+02
          5320   9,23324e+02   5,32000e+03   1,27282e+01   3,17537e-01   9,16667e+02
          5330   9,25019e+02   5,33000e+03   1,27783e+01   3,16859e-01   9,18333e+02
          5340   9,26731e+02   5,34000e+03   1,27805e+01   3,17042e-01   9,20000e+02
          5350   9,28421e+02   5,35000e+03   1,28212e+01   3,17027e-01   9,21667e+02
          5360   9,30114e+02   5,36000e+03   1,28545e+01   3,16809e-01   9,23333e+02
          5370   9,31818e+02   5,37000e+03   1,28398e+01   3,16792e-01   9,25000e+02
          5380   9,33514e+02   5,38000e+03   1,28283e+01   3,16132e-01   9,26667e+02
          5390   9,35214e+02   5,39000e+03   1,28499e+01   3,15813e-01   9,28333e+02
          5400   9,36915e+02   5,40000e+03   1,28544e+01   3,15934e-01   9,30000e+02
          5410   9,38619e+02   5,41000e+03   1,28182e+01   3,15720e-01   9,31667e+02
          5420   9,40322e+02   5,42000e+03   1,27634e+01   3,14919e-01   9,33333e+02
          5430   9,42030e+02   5,43000e+03   1,27170e+01   3,15540e-01   9,35000e+02
          5440   9,43733e+02   5,44000e+03   1,27308e+01   3,15796e-01   9,36667e+02
          5450   9,45425e+02   5,45000e+03   1,27128e+01   3,15702e-01   9,38333e+02
          5460   9,47132e+02   5,46000e+03   1,26909e+01   3,15451e-01   9,40000e+02
          5470   9,48831e+02   5,47000e+03   1,26760e+01   3,14874e-01   9,41667e+02
          5480   9,50535e+02   5,48000e+03   1,27050e+01   3,14802e-01   9,43333e+02
          5490   9,52238e+02   5,49000e+03   1,25866e+01   3,14800e-01   9,45000e+02
          5500   9,53952e+02   5,50000e+03   1,24677e+01   3,15111e-01   9,46667e+02
          5510   9,55648e+02   5,51000e+03   1,23980e+01   3,15203e-01   9,48333e+02
          5520   9,57339e+02   5,52000e+03   1,23309e+01   3,14060e-01   9,50000e+02
          5530   9,59054e+02   5,53000e+03   1,22691e+01   3,14687e-01   9,51667e+02
          5540   9,60762e+02   5,54000e+03   1,21485e+01   3,14863e-01   9,53333e+02
          5550   9,62450e+02   5,55000e+03   1,20366e+01   3,15408e-01   9,55000e+02
          5560   9,64152e+02   5,56000e+03   1,19591e+01   3,14846e-01   9,56667e+02
          5570   9,65853e+02   5,57000e+03   1,18649e+01   3,14234e-01   9,58333e+02
          5580   9,67552e+02   5,58000e+03   1,16977e+01   3,13823e-01   9,60000e+02
          5590   9,69260e+02   5,59000e+03   1,15317e+01   3,14222e-01   9,61667e+02
          5600   9,70964e+02   5,60000e+03   1,14310e+01   3,14787e-01   9,63333e+02
          5610   9,72683e+02   5,61000e+03   1,13438e+01   3,14206e-01   9,65000e+02
          5620   9,74388e+02   5,62000e+03   1,12417e+01   3,13613e-01   9,66667e+02
          5630   9,76092e+02   5,63000e+03   1,10521e+01   3,13378e-01   9,68333e+02
          5640   9,77803e+02   5,64000e+03   1,09006e+01   3,13793e-01   9,70000e+02
          5650   9,79508e+02   5,65000e+03   1,07700e+01   3,13968e-01   9,71667e+02
          5660   9,81212e+02   5,66000e+03   1,06617e+01   3,13895e-01   9,73333e+02
          5670   9,82916e+02   5,67000e+03   1,05020e+01   3,13803e-01   9,75000e+02
          5680   9,84620e+02   5,68000e+03   1,03078e+01   3,13800e-01   9,76667e+02
          5690   9,86318e+02   5,69000e+03   1,01454e+01   3,13423e-01   9,78333e+02
          5700   9,88015e+02   5,70000e+03   9,94630e+00   3,12840e-01   9,80000e+02
          5710   9,89711e+02   5,71000e+03   9,73569e+00   3,12825e-01   9,81667e+02
          5720   9,91419e+02   5,72000e+03   9,51266e+00   3,12801e-01   9,83333e+02
          5730   9,93117e+02   5,73000e+03   9,24250e+00   3,12646e-01   9,85000e+02
          5740   9,94835e+02   5,74000e+03   8,95407e+00   3,11786e-01   9,86667e+02
          5750   9,96543e+02   5,75000e+03   8,68400e+00   3,11807e-01   9,88333e+02
          5760   9,98241e+02   5,76000e+03   8,41839e+00   3,11802e-01   9,90000e+02
          5770   9,99950e+02   5,77000e+03   8,12276e+00   3,11936e-01   9,91667e+02
          5780   1,00166e+03   5,78000e+03   7,81854e+00   3,12105e-01   9,93333e+02
          5790   1,00337e+03   5,79000e+03   7,49566e+00   3,11813e-01   9,95000e+02
          5800   1,00506e+03   5,80000e+03   7,13403e+00   3,11259e-01   9,96667e+02
          5810   1,00678e+03   5,81000e+03   6,81243e+00   3,10831e-01   9,98333e+02
          5820   1,00849e+03   5,82000e+03   6,62542e+00   3,11778e-01   1,00000e+03
&20251002-01 CB-HS1