File: AbsorptionAnalysis/Absorption_Test_BackgroundSubstractions/SurfSol.csv
SurfactantFilm,,SurfactantSolution,
Wavelength(nm),Absorption,Wavelength(nm),Absorption
250,0.025274,250,0.75243
252,0.031895,252,0.73805
254,0.030471,254,0.7269
256,0.028897,256,0.71856
258,0.026404,258,0.71337
260,0.027329,260,0.71057
262,0.025668,262,0.70961
264,0.023898,264,0.70985
266,0.023669,266,0.71179
268,0.024846,268,0.71567
270,0.025259,270,0.72141
272,0.024536,272,0.72781
274,0.024791,274,0.73399
276,0.024686,276,0.73876
278,0.025278,278,0.74149
280,0.024085,280,0.74341
282,0.023615,282,0.74434
284,0.024041,284,0.74418
286,0.023001,286,0.74268
288,0.023204,288,0.73979
290,0.022826,290,0.73417
292,0.021919,292,0.72573
294,0.020936,294,0.7154
296,0.020819,296,0.70433
298,0.019821,298,0.69413
300,0.01922,300,0.68431
302,0.018179,302,0.67433
304,0.017563,304,0.66361
306,0.017338,306,0.65209
308,0.01698,308,0.63966
310,0.01646,310,0.62811
312,0.01639,312,0.6179
314,0.016055,314,0.60993
316,0.015835,316,0.60461
318,0.015356,318,0.60098
320,0.01561,320,0.59735
322,0.015435,322,0.59124
324,0.015451,324,0.58143
326,0.015119,326,0.56862
328,0.014919,328,0.55465
330,0.014524,330,0.54196
332,0.014521,332,0.53123
334,0.014092,334,0.52274
336,0.013673,336,0.51645
338,0.01339,338,0.51122
340,0.013695,340,0.50698
342,0.01338,342,0.50302
344,0.013212,344,0.49951
346,0.013097,346,0.49676
348,0.013311,348,0.49552
350,0.013311,350,0.49439
352,0.013652,352,0.49014
354,0.0134,354,0.48216
356,0.013112,356,0.47133
358,0.013034,358,0.45949
360,0.012883,360,0.44888
362,0.01262,362,0.44118
364,0.012532,364,0.43682
366,0.012302,366,0.43669
368,0.012193,368,0.44122
370,0.012304,370,0.44964
372,0.012398,372,0.45911
374,0.012525,374,0.46334
376,0.01253,376,0.45909
378,0.012506,378,0.44809
380,0.01242,380,0.43432
382,0.011928,382,0.42047
384,0.011935,384,0.40706
386,0.011563,386,0.39403
388,0.011295,388,0.38176
390,0.010997,390,0.37057
392,0.011026,392,0.36079
394,0.010838,394,0.35265
396,0.010358,396,0.34646
398,0.010303,398,0.3424
400,0.010262,400,0.34005
402,0.010257,402,0.33979
404,0.010083,404,0.34145
406,0.010177,406,0.3442
408,0.010231,408,0.34692
410,0.010345,410,0.34795
412,0.010182,412,0.34588
414,0.010232,414,0.34081
416,0.010185,416,0.33407
418,0.010118,418,0.32706
420,0.0099223,420,0.31993
422,0.0097835,422,0.31345
424,0.0097386,424,0.30752
426,0.0094243,426,0.30204
428,0.0093694,428,0.29708
430,0.0093466,430,0.29272
432,0.0092307,432,0.28856
434,0.0091755,434,0.28512
436,0.0091142,436,0.28225
438,0.0089814,438,0.27981
440,0.0088031,440,0.27807
442,0.0089217,442,0.27654
444,0.0087346,444,0.27519
446,0.0086053,446,0.27387
448,0.0086755,448,0.27268
450,0.0089382,450,0.27142
452,0.0085155,452,0.27012
454,0.0085599,454,0.26885
456,0.0084104,456,0.26747
458,0.0085494,458,0.26612
460,0.0083641,460,0.26478
462,0.0084244,462,0.26329
464,0.0083037,464,0.26171
466,0.0082161,466,0.26003
468,0.008131,468,0.2581
470,0.0080698,470,0.25602
472,0.0081414,472,0.25414
474,0.0081393,474,0.25226
476,0.0079519,476,0.25059
478,0.007924,478,0.24886
480,0.007792,480,0.24758
482,0.007931,482,0.24637
484,0.0079248,484,0.24515
486,0.0078229,486,0.24428
488,0.007783,488,0.24357
490,0.0078625,490,0.24299
492,0.0077234,492,0.24273
494,0.0076693,494,0.24265
496,0.0076319,496,0.24301
498,0.0077633,498,0.24349
500,0.0077447,500,0.24424
502,0.0077465,502,0.24516
504,0.0079001,504,0.24605
506,0.0078246,506,0.24688
508,0.0078193,508,0.24721
510,0.0078117,510,0.2474
512,0.0078093,512,0.24701
514,0.007833,514,0.24633
516,0.0078153,516,0.24516
518,0.0077085,518,0.24388
520,0.0076433,520,0.24235
522,0.0075789,522,0.24097
524,0.0075932,524,0.23944
526,0.0074828,526,0.2381
528,0.0075822,528,0.23697
530,0.0075001,530,0.23617
532,0.0074891,532,0.23574
534,0.0075142,534,0.23549
536,0.0074216,536,0.23546
538,0.0074504,538,0.23576
540,0.007498,540,0.23618
542,0.0074934,542,0.23692
544,0.0075185,544,0.23803
546,0.0073774,546,0.23969
548,0.0076625,548,0.24172
550,0.0076567,550,0.2438
552,0.0076611,552,0.2459
554,0.0076157,554,0.24735
556,0.0077408,556,0.24865
558,0.0075603,558,0.24967
560,0.0078743,560,0.25076
562,0.0077691,562,0.25178
564,0.0079067,564,0.25292
566,0.0078235,566,0.25393
568,0.0078743,568,0.25465
570,0.0077917,570,0.25536
572,0.0078867,572,0.25596
574,0.0079325,574,0.25649
576,0.0079885,576,0.25716
578,0.0079255,578,0.25787
580,0.00799,580,0.25927
582,0.0081009,582,0.26092
584,0.0081414,584,0.26263
586,0.0082119,586,0.26429
588,0.0082124,588,0.26504
590,0.0083563,590,0.26466
592,0.0081873,592,0.26294
594,0.0083228,594,0.2605
596,0.0083153,596,0.25761
598,0.0084389,598,0.25515
600,0.0084656,600,0.25322
602,0.0084583,602,0.2515
604,0.0084399,604,0.25023
606,0.0083678,606,0.24943
608,0.0083918,608,0.24875
610,0.0083629,610,0.24818
612,0.0083327,612,0.2479
614,0.0082437,614,0.2475
616,0.0082243,616,0.24722
618,0.0082435,618,0.24735
620,0.008272,620,0.24779
622,0.0082322,622,0.24901
624,0.0082789,624,0.25083
626,0.0083143,626,0.2537
628,0.0082843,628,0.25757
630,0.0084141,630,0.2626
632,0.0084321,632,0.26893
634,0.0085805,634,0.27651
636,0.0085766,636,0.28512
638,0.0086963,638,0.29449
640,0.0088452,640,0.30423
642,0.0090477,642,0.31371
644,0.009145,644,0.32177
646,0.0091738,646,0.32787
648,0.0094276,648,0.33146
650,0.0092541,650,0.33259
652,0.0094327,652,0.33146
654,0.0095309,654,0.32838
656,0.0095794,656,0.32401
658,0.0093463,658,0.31897
660,0.0095365,660,0.31378
662,0.0093609,662,0.30882
664,0.0093989,664,0.30447
666,0.0093328,666,0.30054
668,0.0092974,668,0.29716
670,0.0090314,670,0.29459
672,0.0090457,672,0.29237
674,0.0088433,674,0.29013
676,0.0089475,676,0.28783
678,0.0088139,678,0.2849
680,0.0088335,680,0.28154
682,0.008744,682,0.27797
684,0.0086547,684,0.27455
686,0.0085454,686,0.27158
688,0.0087182,688,0.26901
690,0.0085487,690,0.26686
692,0.0084407,692,0.26501
694,0.0085634,694,0.2635
696,0.0084295,696,0.26227
698,0.0084807,698,0.2617
700,0.0084819,700,0.2618
702,0.0082824,702,0.263
704,0.0083853,704,0.26539
706,0.0083561,706,0.26933
708,0.0084742,708,0.27435
710,0.00849,710,0.28101
712,0.0084925,712,0.28903
714,0.0085895,714,0.29797
716,0.0085813,716,0.30696
718,0.0087911,718,0.31551
720,0.0088174,720,0.32226
722,0.0088648,722,0.32674
724,0.0088814,724,0.32839
726,0.0090532,726,0.32728
728,0.0092433,728,0.32418
730,0.0092042,730,0.32001
732,0.0091553,732,0.31462
734,0.0092608,734,0.30923
736,0.0092013,736,0.30316
738,0.0091998,738,0.29697
740,0.0089859,740,0.29023
742,0.009014,742,0.28328
744,0.0087583,744,0.27662
746,0.0086364,746,0.26996
748,0.0086907,748,0.26385
750,0.0085745,750,0.25806
752,0.0084576,752,0.25268
754,0.008372,754,0.24789
756,0.0082133,756,0.24343
758,0.0084064,758,0.23957
760,0.0079605,760,0.23584
762,0.0081336,762,0.23282
764,0.00786,764,0.22983
766,0.007993,766,0.22726
768,0.007774,768,0.22478
770,0.0077861,770,0.22295
772,0.0075963,772,0.22107
774,0.0075144,774,0.21972
776,0.0074661,776,0.21859
778,0.0076551,778,0.21755
780,0.007669,780,0.21693
782,0.0077222,782,0.21659
784,0.0074358,784,0.21659
786,0.0075199,786,0.21654
788,0.0076042,788,0.21698
790,0.0074187,790,0.21732
792,0.0072188,792,0.21751
794,0.0074512,794,0.21766
796,0.0073322,796,0.21767
798,0.0073327,798,0.21779
800,0.0073327,800,0.21643
802,0.0073319,802,0.21606
804,0.0073046,804,0.21556
806,0.0073391,806,0.21496
808,0.0072347,808,0.21419
810,0.007296,810,0.21321
812,0.007255,812,0.21218
814,0.0072622,814,0.21091
816,0.007284,816,0.20953
818,0.0072338,818,0.20802
820,0.0072108,820,0.20626
822,0.0072106,822,0.20449
824,0.0072347,824,0.20259
826,0.0071713,826,0.20061
828,0.0070875,828,0.19866
830,0.0070983,830,0.19669
832,0.0069789,832,0.19483
834,0.0069793,834,0.19301
836,0.0068868,836,0.19126
838,0.0068572,838,0.18968
840,0.0068016,840,0.18825
842,0.0067725,842,0.18702
844,0.0067227,844,0.18588
846,0.0066999,846,0.18499
848,0.006658,848,0.18423
850,0.0066281,850,0.18362
852,0.0065646,852,0.18315
854,0.0065807,854,0.18282
856,0.0065089,856,0.18262
858,0.0065715,858,0.18256
860,0.006425,860,0.18257
862,0.0064237,862,0.18268
864,0.0064295,864,0.18283
866,0.0063604,866,0.18313
868,0.0063745,868,0.18332
870,0.006289,870,0.18355
872,0.0062887,872,0.18377
874,0.0061895,874,0.18396
876,0.0062368,876,0.18403
878,0.0062253,878,0.18407
880,0.0062006,880,0.18402
882,0.006168,882,0.18387
884,0.0060468,884,0.18372
886,0.005988,886,0.18349
888,0.0060915,888,0.18332
890,0.0059881,890,0.18319
892,0.005925,892,0.18314
894,0.0059231,894,0.18318
896,0.0058671,896,0.1834
898,0.0059826,898,0.18388
900,0.0058302,900,0.18476
902,0.0057775,902,0.18605
904,0.0058145,904,0.18773
906,0.0057971,906,0.19004
908,0.0057738,908,0.19252
910,0.0057494,910,0.19471
912,0.005793,912,0.19615
914,0.0058123,914,0.19638
916,0.0057833,916,0.1954
918,0.0057069,918,0.19336
920,0.0057039,920,0.19104
922,0.0058374,922,0.18875
924,0.0057057,924,0.18705
926,0.0057806,926,0.18617
928,0.0058288,928,0.18604
930,0.0058181,930,0.18669
932,0.0058583,932,0.18779
934,0.0058796,934,0.18945
936,0.0058992,936,0.19156
938,0.0059061,938,0.19392
940,0.0059466,940,0.19675
942,0.0059108,942,0.19997
944,0.0060153,944,0.2036
946,0.0060227,946,0.20758
948,0.0060029,948,0.21138
950,0.006037,950,0.21448
952,0.0060064,952,0.21622
954,0.0060744,954,0.21639
956,0.0061302,956,0.21508
958,0.0060694,958,0.21296
960,0.006164,960,0.21058
962,0.006195,962,0.20859
964,0.0062073,964,0.20737
966,0.0062138,966,0.2068
968,0.0063048,968,0.20711
970,0.0062956,970,0.20793
972,0.0063594,972,0.20928
974,0.0063463,974,0.21085
976,0.0063318,976,0.21243
978,0.0063827,978,0.21395
980,0.0063994,980,0.21539
982,0.0064757,982,0.21661
984,0.0064978,984,0.21767
986,0.0065443,986,0.21863
988,0.0065848,988,0.21949
990,0.006611,990,0.22034
992,0.0066537,992,0.22117
994,0.0066377,994,0.22207
996,0.0066518,996,0.22308
998,0.0066638,998,0.22412
1000,0.0067124,1000,0.22531
1002,0.0066843,1002,0.22665
1004,0.0067376,1004,0.22802
1006,0.0067092,1006,0.22975
1008,0.006734,1008,0.23185
1010,0.006741,1010,0.23428
1012,0.0067537,1012,0.23735
1014,0.0067978,1014,0.24058
1016,0.0066945,1016,0.24401
1018,0.006705,1018,0.24734
1020,0.0067674,1020,0.24968
1022,0.0067951,1022,0.25082
1024,0.0067769,1024,0.2504
1026,0.0068088,1026,0.24846
1028,0.0067623,1028,0.24547
1030,0.0068363,1030,0.24186
1032,0.0068521,1032,0.23815
1034,0.0067542,1034,0.23447
1036,0.0067612,1036,0.23135
1038,0.0068268,1038,0.22868
1040,0.0067799,1040,0.22656
1042,0.0068526,1042,0.22512
1044,0.0068689,1044,0.22404
1046,0.0068315,1046,0.22348
1048,0.0069046,1048,0.22314
1050,0.0068499,1050,0.22312
1052,0.0068182,1052,0.22333
1054,0.006796,1054,0.22362
1056,0.0068634,1056,0.22392
1058,0.0068923,1058,0.22404
1060,0.0068723,1060,0.22382
1062,0.0067819,1062,0.22315
1064,0.0068225,1064,0.22195
1066,0.0068525,1066,0.22037
1068,0.0067555,1068,0.21853
1070,0.0068383,1070,0.21702
1072,0.0068444,1072,0.21573
1074,0.0068507,1074,0.21521
1076,0.0068078,1076,0.21532
1078,0.0067807,1078,0.21621
1080,0.0068165,1080,0.21771
1082,0.0068917,1082,0.22013
1084,0.0068457,1084,0.22341
1086,0.0068969,1086,0.22748
1088,0.0068829,1088,0.23275
1090,0.0069034,1090,0.2394
1092,0.0069172,1092,0.24739
1094,0.0069213,1094,0.25749
1096,0.0069501,1096,0.26932
1098,0.0070074,1098,0.28331
1100,0.0070429,1100,0.30001
1102,0.0070911,1102,0.31824
1104,0.0071752,1104,0.33821
1106,0.0072019,1106,0.36012
1108,0.0073596,1108,0.38162
1110,0.0074166,1110,0.40203
1112,0.0074885,1112,0.42014
1114,0.0076144,1114,0.43505
1116,0.0077415,1116,0.44717
1118,0.0078656,1118,0.456
1120,0.0079676,1120,0.46183
1122,0.0081663,1122,0.46446
1124,0.0083189,1124,0.46345
1126,0.0084965,1126,0.45872
1128,0.0086415,1128,0.45078
1130,0.0087769,1130,0.44104
1132,0.0089157,1132,0.43008
1134,0.0090794,1134,0.41908
1136,0.0092648,1136,0.40841
1138,0.0093297,1138,0.39812
1140,0.0094861,1140,0.38862
1142,0.0096058,1142,0.37941
1144,0.0097958,1144,0.37014
1146,0.0098369,1146,0.36153
1148,0.0099778,1148,0.35384
1150,0.010009,1150,0.34708
1152,0.01015,1152,0.34204
1154,0.010157,1154,0.33849
1156,0.010169,1156,0.33656
1158,0.010194,1158,0.33633
1160,0.010238,1160,0.33761
1162,0.010203,1162,0.34047
1164,0.010227,1164,0.34459
1166,0.0102,1166,0.34987
1168,0.010212,1168,0.35609
1170,0.010202,1170,0.36309
1172,0.010199,1172,0.37039
1174,0.010149,1174,0.37762
1176,0.010107,1176,0.38466
1178,0.010085,1178,0.3907
1180,0.010056,1180,0.39543
1182,0.0099326,1182,0.39826
1184,0.0099329,1184,0.39869
1186,0.009944,1186,0.39641
1188,0.0099291,1188,0.39106
1190,0.00987,1190,0.38308
1192,0.0098253,1192,0.37289
1194,0.0097547,1194,0.36067
1196,0.0097324,1196,0.34794
1198,0.0097324,1198,0.33515
1200,0.0097324,1200,0.32251
1202,0.0096766,1202,0.31094
1204,0.00964,1204,0.30033
1206,0.0095435,1206,0.29142
1208,0.0095325,1208,0.28344
1210,0.0094806,1210,0.27656
1212,0.0094527,1212,0.27093
1214,0.0093382,1214,0.26589
1216,0.0093249,1216,0.26167
1218,0.0092298,1218,0.25828
1220,0.0092175,1220,0.25544
1222,0.0090981,1222,0.25354
1224,0.0090403,1224,0.25235
1226,0.0089602,1226,0.25205
1228,0.0089677,1228,0.25272
1230,0.0087843,1230,0.25443
1232,0.0087478,1232,0.25717
1234,0.0086171,1234,0.26098
1236,0.0086355,1236,0.26586
1238,0.0085242,1238,0.27195
1240,0.0085085,1240,0.27856
1242,0.0083302,1242,0.2857
1244,0.0083906,1244,0.29278
1246,0.008258,1246,0.29989
1248,0.0082944,1248,0.30612
1250,0.0081802,1250,0.31134
1252,0.0081987,1252,0.31508
1254,0.0081263,1254,0.31738
1256,0.0081788,1256,0.31826
1258,0.0081046,1258,0.31781
1260,0.0081176,1260,0.31617
1262,0.0080936,1262,0.31362
1264,0.0081045,1264,0.31018
1266,0.0081376,1266,0.30642
1268,0.0081156,1268,0.30254
1270,0.008089,1270,0.29858
1272,0.0081767,1272,0.29493
1274,0.0081223,1274,0.29169
1276,0.0081748,1276,0.28882
1278,0.0081569,1278,0.28639
1280,0.0081308,1280,0.2842
1282,0.0082076,1282,0.28208
1284,0.0082867,1284,0.27988
1286,0.0081719,1286,0.27738
1288,0.0082487,1288,0.27449
1290,0.0082121,1290,0.27112
1292,0.0082368,1292,0.26709
1294,0.0082367,1294,0.26274
1296,0.0081672,1296,0.25797
1298,0.0081561,1298,0.25285
1300,0.0081852,1300,0.24778
1302,0.0081227,1302,0.24252
1304,0.0080928,1304,0.23744
1306,0.0081201,1306,0.23272
1308,0.0080245,1308,0.22778
1310,0.008075,1310,0.2235
1312,0.0079914,1312,0.21932
1314,0.007933,1314,0.2154
1316,0.0078636,1316,0.2118
1318,0.0077872,1318,0.20842
1320,0.0077001,1320,0.20512
1322,0.0076854,1322,0.20204
1324,0.0075789,1324,0.19906
1326,0.0075133,1326,0.19617
1328,0.0074343,1328,0.19351
1330,0.007404,1330,0.19076
1332,0.0073101,1332,0.18821
1334,0.007229,1334,0.1857
1336,0.0070776,1336,0.18307
1338,0.0070698,1338,0.18061
1340,0.0069572,1340,0.17821
1342,0.0069773,1342,0.17589
1344,0.0068052,1344,0.17359
1346,0.0067794,1346,0.17134
1348,0.0067054,1348,0.16923
1350,0.0067179,1350,0.16712
1352,0.0065374,1352,0.16512
1354,0.0064968,1354,0.16324
1356,0.0064598,1356,0.16159
1358,0.0064319,1358,0.15994
1360,0.0063514,1360,0.15842
1362,0.0064132,1362,0.15697
1364,0.00636,1364,0.15577
1366,0.0062584,1366,0.15472
1368,0.0062207,1368,0.15369
1370,0.0061923,1370,0.15265
1372,0.006191,1372,0.15184
1374,0.0060899,1374,0.15109
1376,0.0059807,1376,0.15017
1378,0.005883,1378,0.14969
1380,0.0059187,1380,0.14851
1382,0.0059907,1382,0.14754
1384,0.005968,1384,0.14636
1386,0.0059611,1386,0.14568
1388,0.0057993,1388,0.14478
1390,0.005764,1390,0.14442
1392,0.0056604,1392,0.14381
1394,0.0057063,1394,0.14298
1396,0.0056184,1396,0.14205
1398,0.0056456,1398,0.14111
1400,0.0056331,1400,0.14158
1402,0.0056296,,
1404,0.0056272,,
1406,0.005526,,
1408,0.0055417,,
1410,0.0055367,,
1412,0.0054925,,
1414,0.005406,,
1416,0.0054561,,
1418,0.0053711,,
1420,0.0054161,,
1422,0.0053741,,
1424,0.0053349,,
1426,0.0052778,,
1428,0.0053042,,
1430,0.0052686,,
1432,0.0052846,,
1434,0.0052515,,
1436,0.0052349,,
1438,0.0052206,,
1440,0.0051883,,
1442,0.0051699,,
1444,0.0051854,,
1446,0.0051282,,
1448,0.0051228,,
1450,0.0051291,,
1452,0.0051151,,
1454,0.0050898,,
1456,0.0050402,,
1458,0.004954,,
1460,0.0049755,,
1462,0.0049676,,
1464,0.0048623,,
1466,0.0048208,,
1468,0.0048481,,
1470,0.0047771,,
1472,0.004846,,
1474,0.0047637,,
1476,0.0046966,,
1478,0.0047013,,
1480,0.0046479,,
1482,0.0046634,,
1484,0.0046243,,
1486,0.0046007,,
1488,0.004578,,
1490,0.0045065,,
1492,0.0044818,,
1494,0.0044777,,
1496,0.0043977,,
1498,0.0044003,,
1500,0.0043611,,
1502,0.0043836,,
1504,0.00428,,
1506,0.0043264,,
1508,0.0042578,,
1510,0.0042671,,
1512,0.0043041,,
1514,0.0042657,,
1516,0.0042301,,
1518,0.0041498,,
1520,0.0040857,,
1522,0.0041042,,
1524,0.0040332,,
1526,0.0041379,,
1528,0.0040708,,
1530,0.0040371,,
1532,0.0040331,,
1534,0.0040329,,
1536,0.0040198,,
1538,0.0040198,,
1540,0.003952,,
1542,0.0040139,,
1544,0.0040172,,
1546,0.0039143,,
1548,0.0039686,,
1550,0.003875,,
1552,0.0038888,,
1554,0.003892,,
1556,0.0038799,,
1558,0.0038532,,
1560,0.003876,,
1562,0.003845,,
1564,0.0038946,,
1566,0.0038676,,
1568,0.0038358,,
1570,0.0038092,,
1572,0.0037742,,
1574,0.0037346,,
1576,0.0037638,,
1578,0.0037362,,
1580,0.0037178,,
1582,0.0036733,,
1584,0.003738,,
1586,0.0037182,,
1588,0.0037236,,
1590,0.003671,,
1592,0.0036897,,
1594,0.0036311,,
1596,0.0036285,,
1598,0.0036252,,
1600,0.0036005,,
1602,0.0035225,,
1604,0.003583,,
1606,0.0036077,,
1608,0.0035214,,
1610,0.0035383,,
1612,0.0034917,,
1614,0.003486,,
1616,0.0035711,,
1618,0.0035082,,
1620,0.00346,,
1622,0.0034482,,
1624,0.0034404,,
1626,0.0033453,,
1628,0.0034237,,
1630,0.0033879,,
1632,0.0033518,,
1634,0.003373,,
1636,0.0033417,,
1638,0.0033468,,
1640,0.0033474,,
1642,0.0032782,,
1644,0.003318,,
1646,0.0032688,,
1648,0.0032379,,
1650,0.0032671,,
1652,0.0032286,,
1654,0.0031894,,
1656,0.0032113,,
1658,0.0031848,,
1660,0.003185,,
1662,0.0032235,,
1664,0.0031617,,
1666,0.0031393,,
1668,0.0031792,,
1670,0.0031117,,
1672,0.003124,,
1674,0.0031347,,
1676,0.0030537,,
1678,0.0031834,,
1680,0.0031062,,
1682,0.0030715,,
1684,0.003067,,
1686,0.0030735,,
1688,0.0030817,,
1690,0.003043,,
1692,0.0029451,,
1694,0.0030037,,
1696,0.0029351,,
1698,0.0029885,,
1700,0.0030302,,
1702,0.0030403,,
1704,0.0029683,,
1706,0.0029575,,
1708,0.0029747,,
1710,0.0029771,,
1712,0.0030114,,
1714,0.002911,,
1716,0.0029467,,
1718,0.0029193,,
1720,0.0029322,,
1722,0.0029619,,
1724,0.0029503,,
1726,0.0029715,,
1728,0.002935,,
1730,0.0029413,,
1732,0.0029514,,
1734,0.0029144,,
1736,0.002905,,
1738,0.0028843,,
1740,0.002874,,
1742,0.0028794,,
1744,0.0028964,,
1746,0.0028307,,
1748,0.0028436,,
1750,0.0028399,,
1752,0.0028645,,
1754,0.0028525,,
1756,0.002904,,
1758,0.0028683,,
1760,0.0028412,,
1762,0.0028387,,
1764,0.0028532,,
1766,0.0028033,,
1768,0.0027754,,
1770,0.0027378,,
1772,0.0027609,,
1774,0.0027732,,
1776,0.0027931,,
1778,0.0028053,,
1780,0.0027468,,
1782,0.0027767,,
1784,0.0027667,,
1786,0.002743,,
1788,0.0027569,,
1790,0.0026939,,
1792,0.0026961,,
1794,0.0027505,,
1796,0.0027394,,
1798,0.0026978,,
1800,0.0027605,,
1802,0.0027186,,
1804,0.0026978,,
1806,0.0027548,,
1808,0.0027162,,
1810,0.0027269,,
1812,0.002783,,
1814,0.0026846,,
1816,0.0027142,,
1818,0.0027015,,
1820,0.0026715,,
1822,0.0027257,,
1824,0.0026944,,
1826,0.0026779,,
1828,0.0027546,,
1830,0.0027647,,
1832,0.002676,,
1834,0.0027226,,
1836,0.0026644,,
1838,0.0026976,,
1840,0.0027345,,
1842,0.0028023,,
1844,0.0027987,,
1846,0.0028061,,
1848,0.0027753,,
1850,0.0028555,,
1852,0.0027938,,
1854,0.0027751,,
1856,0.0027597,,
1858,0.0027531,,
1860,0.0026783,,
1862,0.0027746,,
1864,0.0027468,,
1866,0.0026692,,
1868,0.0027055,,
1870,0.0026255,,
1872,0.0026697,,
1874,0.0027456,,
1876,0.0027441,,
1878,0.0027988,,
1880,0.0026813,,
1882,0.0026868,,
1884,0.0027202,,
1886,0.002774,,
1888,0.0027126,,
1890,0.0027517,,
1892,0.002704,,
1894,0.0026343,,
1896,0.0026969,,
1898,0.0026277,,
1900,0.0026651,,
1902,0.002574,,
1904,0.0025935,,
1906,0.00261,,
1908,0.0026806,,
1910,0.0026306,,
1912,0.0026782,,
1914,0.0026509,,
1916,0.002677,,
1918,0.0026768,,
1920,0.0026507,,
1922,0.0027257,,
1924,0.0026777,,
1926,0.0026444,,
1928,0.0026465,,
1930,0.0026432,,
1932,0.0026614,,
1934,0.0027251,,
1936,0.0026624,,
1938,0.0026516,,
1940,0.0026884,,
1942,0.0026743,,
1944,0.0026755,,
1946,0.002653,,
1948,0.0026518,,
1950,0.0026305,,
1952,0.0026404,,
1954,0.0026365,,
1956,0.0027085,,
1958,0.0026095,,
1960,0.0026368,,
1962,0.0026506,,
1964,0.0025842,,
1966,0.0026901,,
1968,0.0026871,,
1970,0.0026396,,
1972,0.0026592,,
1974,0.0026398,,
1976,0.0026182,,
1978,0.0027196,,
1980,0.002661,,
1982,0.0025981,,
1984,0.0026705,,
1986,0.0026261,,
1988,0.002639,,
1990,0.0027177,,
1992,0.0026377,,
1994,0.0026344,,
1996,0.002599,,
1998,0.0025396,,
2000,0.0026264,,