File: Absorption_Analysis/Absorption - Correction Files/Absorption BG Susbtraction/DodecaneCryostatFilm/Dodecane_KIT_Vac_1.txt
Dodecane_KIT_Vac_1
Wavelength (nm),Abs
2655,0.072715
2653,0.0741929
2651,0.0724522
2649,0.0742855
2647,0.0736921
2645,0.0766955
2643,0.0741228
2641,0.0743047
2639,0.0739384
2637,0.0745912
2635,0.0726033
2633,0.0746001
2631,0.0689197
2629,0.0747738
2627,0.0739805
2625,0.0741932
2623,0.0742263
2621,0.0711163
2619,0.074795
2617,0.0707837
2615,0.0732141
2613,0.0739387
2611,0.072976
2609,0.0747948
2607,0.0744031
2605,0.0740391
2603,0.0733577
2601,0.0742658
2599,0.0739146
2597,0.0713079
2595,0.0722722
2593,0.0760385
2591,0.0734265
2589,0.0718559
2587,0.0757968
2585,0.0710119
2583,0.0761227
2581,0.0744031
2579,0.0745773
2577,0.075644
2575,0.0753911
2573,0.0764506
2571,0.0745699
2569,0.0743143
2567,0.075063
2565,0.0746402
2563,0.0730402
2561,0.0763323
2559,0.0754224
2557,0.0753592
2555,0.0751874
2553,0.0748134
2551,0.0752294
2549,0.0750449
2547,0.0754057
2545,0.0756888
2543,0.0753392
2541,0.0753036
2539,0.0758295
2537,0.0749222
2535,0.0753879
2533,0.0750813
2531,0.0751943
2529,0.0759338
2527,0.0755538
2525,0.0761416
2523,0.0762914
2521,0.076327
2519,0.0761389
2517,0.0761993
2515,0.0761316
2513,0.0762851
2511,0.0763212
2509,0.076111
2507,0.0763461
2505,0.0760736
2503,0.0766086
2501,0.0764991
2499,0.0765511
2497,0.0768191
2495,0.0766743
2493,0.0767209
2491,0.0768005
2489,0.0766172
2487,0.0770523
2485,0.0769711
2483,0.0771308
2481,0.0771673
2479,0.0772275
2477,0.0774621
2475,0.0772982
2473,0.0772197
2471,0.0774939
2469,0.0772735
2467,0.0777783
2465,0.0775448
2463,0.0779103
2461,0.0778951
2459,0.0778546
2457,0.0778098
2455,0.0780971
2453,0.0778523
2451,0.0781166
2449,0.0780416
2447,0.0781695
2445,0.0784396
2443,0.0783879
2441,0.0785864
2439,0.0786833
2437,0.0786776
2435,0.0789501
2433,0.0788438
2431,0.0788809
2429,0.0792341
2427,0.079133
2425,0.0794563
2423,0.0793792
2421,0.0792063
2419,0.0794862
2417,0.0796318
2415,0.0795818
2413,0.0797525
2411,0.0799264
2409,0.0797814
2407,0.0803094
2405,0.0802423
2403,0.0801495
2401,0.0805474
2399,0.0804782
2397,0.0805045
2395,0.0809237
2393,0.0806471
2391,0.0809145
2389,0.0812712
2387,0.0811292
2385,0.0814181
2383,0.0815251
2381,0.0815069
2379,0.0818217
2377,0.0816682
2375,0.0821027
2373,0.0821025
2371,0.082094
2369,0.0824372
2367,0.082431
2365,0.082764
2363,0.0827794
2361,0.0829902
2359,0.083064
2357,0.0832496
2355,0.0835176
2353,0.0835925
2351,0.0839125
2349,0.0839399
2347,0.0843085
2345,0.0842878
2343,0.0845737
2341,0.0847733
2339,0.0847196
2337,0.0851622
2335,0.0850457
2333,0.085393
2331,0.0854799
2329,0.0857998
2327,0.0859063
2325,0.0859524
2323,0.0864093
2321,0.0865578
2319,0.0868398
2317,0.0868038
2315,0.087375
2313,0.0870813
2311,0.0874945
2309,0.0877284
2307,0.0880372
2305,0.0880517
2303,0.0884389
2301,0.0885984
2299,0.0887902
2297,0.0889044
2295,0.0892917
2293,0.0894248
2291,0.0895076
2289,0.0901298
2287,0.0902484
2285,0.0904924
2283,0.0907699
2281,0.0910273
2279,0.0909554
2277,0.0909904
2275,0.0919798
2273,0.0918594
2271,0.092408
2269,0.0925263
2267,0.0929652
2265,0.0930389
2263,0.0932683
2261,0.093625
2259,0.0943496
2257,0.0942525
2255,0.0942892
2253,0.0950518
2251,0.0952758
2249,0.0957295
2247,0.0954925
2245,0.0962582
2243,0.0964325
2241,0.0967969
2239,0.0970933
2237,0.0972806
2235,0.0980147
2233,0.097698
2231,0.0986627
2229,0.0985774
2227,0.0992086
2225,0.0994281
2223,0.0999589
2221,0.100509
2219,0.100684
2217,0.101291
2215,0.101424
2213,0.101904
2211,0.102506
2209,0.102473
2207,0.102904
2205,0.103528
2203,0.103738
2201,0.104319
2199,0.104208
2197,0.104773
2195,0.105315
2193,0.10557
2191,0.10583
2189,0.106623
2187,0.106545
2185,0.107216
2183,0.107627
2181,0.107744
2179,0.108411
2177,0.108848
2175,0.109165
2173,0.109641
2171,0.110297
2169,0.110625
2167,0.111119
2165,0.111456
2163,0.111723
2161,0.112429
2159,0.11287
2157,0.113434
2155,0.113997
2153,0.114226
2151,0.114597
2149,0.115242
2147,0.115741
2145,0.116079
2143,0.116475
2141,0.117302
2139,0.117779
2137,0.118132
2135,0.118545
2133,0.119187
2131,0.119698
2129,0.120086
2127,0.120782
2125,0.121038
2123,0.121831
2121,0.122245
2119,0.122775
2117,0.123512
2115,0.123913
2113,0.124677
2111,0.125232
2109,0.125787
2107,0.126461
2105,0.126893
2103,0.127446
2101,0.12828
2099,0.128806
2097,0.129474
2095,0.130151
2093,0.130676
2091,0.131446
2089,0.132181
2087,0.132666
2085,0.13317
2083,0.134087
2081,0.134841
2079,0.135484
2077,0.135932
2075,0.13658
2073,0.137322
2071,0.138196
2069,0.138804
2067,0.139613
2065,0.140363
2063,0.140812
2061,0.141762
2059,0.142377
2057,0.143203
2055,0.14396
2053,0.14475
2051,0.145341
2049,0.146105
2047,0.146768
2045,0.147702
2043,0.148571
2041,0.149219
2039,0.150001
2037,0.150662
2035,0.151389
2033,0.152059
2031,0.153079
2029,0.153846
2027,0.154457
2025,0.155229
2023,0.155919
2021,0.156871
2019,0.157672
2017,0.158332
2015,0.159052
2013,0.159865
2011,0.160613
2009,0.161256
2007,0.162194
2005,0.162865
2003,0.163592
2001,0.164301
1999,0.165135
1997,0.165916
1995,0.166597
1993,0.167467
1991,0.168074
1989,0.168868
1987,0.169441
1985,0.170128
1983,0.170854
1981,0.171613
1979,0.172301
1977,0.172975
1975,0.173685
1973,0.174419
1971,0.175124
1969,0.175778
1967,0.176364
1965,0.176979
1963,0.177591
1961,0.178393
1959,0.178923
1957,0.179711
1955,0.180277
1953,0.180943
1951,0.181605
1949,0.182247
1947,0.183028
1945,0.183786
1943,0.184367
1941,0.185023
1939,0.185896
1937,0.186399
1935,0.187031
1933,0.18779
1931,0.188476
1929,0.189178
1927,0.189827
1925,0.190452
1923,0.191185
1921,0.191745
1919,0.192794
1917,0.193197
1915,0.193918
1913,0.194783
1911,0.195453
1909,0.196039
1907,0.196368
1905,0.197766
1903,0.19825
1901,0.198555
1899,0.199824
1897,0.200284
1895,0.200778
1893,0.201568
1891,0.202088
1889,0.202915
1887,0.20349
1885,0.203868
1883,0.204832
1881,0.205366
1879,0.205721
1877,0.206523
1875,0.206702
1873,0.207595
1871,0.208113
1869,0.208423
1867,0.20957
1865,0.209329
1863,0.210057
1861,0.210053
1859,0.211027
1857,0.211201
1855,0.211266
1853,0.212222
1851,0.212086
1849,0.212203
1847,0.213191
1845,0.212744
1843,0.212677
1841,0.213298
1839,0.213311
1837,0.213387
1835,0.213718
1833,0.213451
1831,0.213374
1829,0.213668
1827,0.213483
1825,0.213424
1823,0.213331
1821,0.213329
1819,0.212953
1817,0.212739
1815,0.212513
1813,0.212289
1811,0.212023
1809,0.211775
1807,0.211473
1805,0.211072
1803,0.210626
1801,0.210336
1799,0.209963
1797,0.209541
1795,0.209114
1793,0.208704
1791,0.20821
1789,0.20781
1787,0.207285
1785,0.206751
1783,0.206241
1781,0.205687
1779,0.205152
1777,0.204703
1775,0.204118
1773,0.203523
1771,0.203087
1769,0.202322
1767,0.201894
1765,0.201235
1763,0.200686
1761,0.200081
1759,0.199562
1757,0.198957
1755,0.19835
1753,0.197795
1751,0.197217
1749,0.19653
1747,0.195976
1745,0.195387
1743,0.194689
1741,0.194096
1739,0.193565
1737,0.192923
1735,0.192317
1733,0.1915
1731,0.191002
1729,0.190364
1727,0.189619
1725,0.188953
1723,0.188283
1721,0.187619
1719,0.186893
1717,0.186216
1715,0.18559
1713,0.184826
1711,0.184176
1709,0.183357
1707,0.182672
1705,0.181816
1703,0.181131
1701,0.180299
1699,0.179612
1697,0.178814
1695,0.178059
1693,0.177233
1691,0.176518
1689,0.17572
1687,0.174879
1685,0.174088
1683,0.173347
1681,0.172615
1679,0.171689
1677,0.171005
1675,0.17023
1673,0.16946
1671,0.1687
1669,0.167988
1667,0.167153
1665,0.166468
1663,0.165533
1661,0.164812
1659,0.164087
1657,0.163284
1655,0.162572
1653,0.161808
1651,0.161082
1649,0.16022
1647,0.159474
1645,0.158728
1643,0.157977
1641,0.157247
1639,0.156521
1637,0.155773
1635,0.155029
1633,0.154311
1631,0.153502
1629,0.152817
1627,0.152107
1625,0.15152
1623,0.150676
1621,0.149962
1619,0.14933
1617,0.148589
1615,0.147959
1613,0.147214
1611,0.146697
1609,0.146002
1607,0.145438
1605,0.144804
1603,0.144183
1601,0.143643
1599,0.143116
1597,0.142509
1595,0.142029
1593,0.14146
1591,0.140953
1589,0.140513
1587,0.139951
1585,0.13958
1583,0.139033
1581,0.1387
1579,0.138265
1577,0.137793
1575,0.137386
1573,0.137009
1571,0.136568
1569,0.136265
1567,0.135913
1565,0.135539
1563,0.135219
1561,0.134928
1559,0.13463
1557,0.134251
1555,0.133954
1553,0.133681
1551,0.133378
1549,0.13313
1547,0.132832
1545,0.132592
1543,0.132321
1541,0.132063
1539,0.131863
1537,0.13162
1535,0.131399
1533,0.131225
1531,0.130947
1529,0.130822
1527,0.130591
1525,0.130432
1523,0.130228
1521,0.13008
1519,0.129894
1517,0.129696
1515,0.12958
1513,0.129396
1511,0.129259
1509,0.129119
1507,0.128965
1505,0.12879
1503,0.128718
1501,0.128548
1499,0.128421
1497,0.128325
1495,0.128184
1493,0.12813
1491,0.127976
1489,0.127878
1487,0.127802
1485,0.127618
1483,0.127615
1481,0.127513
1479,0.127415
1477,0.127331
1475,0.127205
1473,0.127198
1471,0.127052
1469,0.127025
1467,0.126957
1465,0.126874
1463,0.126775
1461,0.126719
1459,0.126621
1457,0.126535
1455,0.126508
1453,0.126402
1451,0.126405
1449,0.126323
1447,0.126261
1445,0.126211
1443,0.126161
1441,0.12609
1439,0.125965
1437,0.125992
1435,0.125869
1433,0.125868
1431,0.125824
1429,0.125757
1427,0.125722
1425,0.125655
1423,0.12558
1421,0.125547
1419,0.125494
1417,0.125446
1415,0.125465
1413,0.125353
1411,0.125239
1409,0.125269
1407,0.125253
1405,0.125166
1403,0.125126
1401,0.125218
1399,0.125089
1397,0.125017
1395,0.125064
1393,0.124952
1391,0.124884
1389,0.124837
1387,0.124752
1385,0.124725
1383,0.124818
1381,0.12473
1379,0.124639
1377,0.124649
1375,0.124487
1373,0.124382
1371,0.124417
1369,0.124277
1367,0.124328
1365,0.124196
1363,0.124139
1361,0.12436
1359,0.12412
1357,0.124069
1355,0.124032
1353,0.124067
1351,0.124036
1349,0.123992
1347,0.123982
1345,0.123983
1343,0.12391
1341,0.123928
1339,0.123985
1337,0.123974
1335,0.123952
1333,0.123948
1331,0.123952
1329,0.124013
1327,0.123963
1325,0.123989
1323,0.123972
1321,0.124038
1319,0.124103
1317,0.124076
1315,0.124125
1313,0.124172
1311,0.124201
1309,0.124291
1307,0.124329
1305,0.124409
1303,0.124465
1301,0.124559
1299,0.124626
1297,0.12472
1295,0.124815
1293,0.124825
1291,0.12497
1289,0.125126
1287,0.125212
1285,0.125305
1283,0.125463
1281,0.125617
1279,0.125729
1277,0.125868
1275,0.126055
1273,0.126158
1271,0.12637
1269,0.126573
1267,0.12674
1265,0.126931
1263,0.127134
1261,0.127362
1259,0.127604
1257,0.127799
1255,0.128053
1253,0.1283
1251,0.12856
1249,0.12882
1247,0.129109
1245,0.129393
1243,0.129656
1241,0.129933
1239,0.130298
1237,0.130577
1235,0.13086
1233,0.131294
1231,0.131602
1229,0.131982
1227,0.13235
1225,0.132641
1223,0.133093
1221,0.133485
1219,0.133906
1217,0.134361
1215,0.134804
1213,0.135291
1211,0.135705
1209,0.136181
1207,0.136729
1205,0.137184
1203,0.137647
1201,0.138287
1199,0.138614
1197,0.139137
1195,0.139699
1193,0.140334
1191,0.140839
1189,0.141478
1187,0.142086
1185,0.142664
1183,0.143326
1181,0.143893
1179,0.144546
1177,0.145183
1175,0.145778
1173,0.146402
1171,0.147023
1169,0.147677
1167,0.148343
1165,0.148926
1163,0.149613
1161,0.150249
1159,0.150913
1157,0.151586
1155,0.152246
1153,0.152985
1151,0.153669
1149,0.154398
1147,0.155165
1145,0.155954
1143,0.156814
1141,0.15764
1139,0.158568
1137,0.159416
1135,0.160431
1133,0.161435
1131,0.162423
1129,0.163442
1127,0.16453
1125,0.165608
1123,0.166724
1121,0.167836
1119,0.168933
1117,0.170065
1115,0.171126
1113,0.172255
1111,0.173323
1109,0.174342
1107,0.175414
1105,0.176359
1103,0.177261
1101,0.178245
1099,0.179025
1097,0.179765
1095,0.180433
1093,0.181103
1091,0.181714
1089,0.182199
1087,0.18269
1085,0.183067
1083,0.183498
1081,0.183918
1079,0.184245
1077,0.184568
1075,0.184995
1073,0.185356
1071,0.185768
1069,0.186164
1067,0.186663
1065,0.187211
1063,0.187779
1061,0.188335
1059,0.188956
1057,0.189611
1055,0.190339
1053,0.191048
1051,0.191789
1049,0.192544
1047,0.193321
1045,0.194026
1043,0.194733
1041,0.195441
1039,0.195942
1037,0.196556
1035,0.197088
1033,0.197482
1031,0.197857
1029,0.19806
1027,0.19826
1025,0.198423
1023,0.198361
1021,0.198355
1019,0.198189
1017,0.197964
1015,0.197788
1013,0.197445
1011,0.197158
1009,0.196716
1007,0.196404
1005,0.195943
1003,0.195388
1001,0.194916
999,0.194404
997,0.193761
995,0.193208
993,0.192554
991,0.191848
989,0.191224
987,0.190473
985,0.189826
983,0.189133
981,0.188357
979,0.187696
977,0.186946
975,0.186343
973,0.18575
971,0.185045
969,0.184449
967,0.183889
965,0.183292
963,0.182728
961,0.182155
959,0.181621
957,0.181006
955,0.180455
953,0.17976
951,0.179134
949,0.178427
947,0.177765
945,0.177096
943,0.17632
941,0.175529
939,0.174844
937,0.173964
935,0.173339
933,0.17245
931,0.171812
929,0.170993
927,0.170258
925,0.169294
923,0.168667
921,0.167786
919,0.167022
917,0.166153
915,0.165418
913,0.164682
911,0.163775
909,0.16303
907,0.162393
905,0.161457
903,0.160823
901,0.160164
899,0.153513
897,0.166567
895,0.164005
893,0.155866
891,0.156431
889,0.159388
887,0.158411
885,0.159541
883,0.158484
881,0.156711
879,0.153592
877,0.157364
875,0.152922
873,0.15756
871,0.158776
869,0.152637
867,0.151592
865,0.153121
863,0.153139
861,0.153217
859,0.151561
857,0.153598
855,0.151594
853,0.152574
851,0.15115
849,0.151504
847,0.150738
845,0.15063
843,0.1511
841,0.150973
839,0.14988
837,0.150158
835,0.149855
833,0.150804
831,0.150313
829,0.150827
827,0.15078
825,0.15086
823,0.151077
821,0.151137
819,0.152151
817,0.152387
815,0.152512
813,0.152647
811,0.153261
809,0.153665
807,0.153939
805,0.15445
803,0.154769
801,0.154911
799,0.155671
797,0.156722
795,0.157009
793,0.15718
791,0.157879
789,0.158139
787,0.158757
785,0.158854
783,0.159432
781,0.160131
779,0.160543
777,0.161062
775,0.161849
773,0.162299
771,0.163103
769,0.163716
767,0.165113
765,0.165597
763,0.166897
761,0.167874
759,0.168837
757,0.169549
755,0.171091
753,0.171902
751,0.172646
749,0.173458
747,0.174298
745,0.174907
743,0.175254
741,0.175726
739,0.176293
737,0.176057
735,0.176371
733,0.176435
731,0.176632
729,0.176959
727,0.176877
725,0.177352
723,0.177442
721,0.177878
719,0.177835
717,0.178289
715,0.178652
713,0.179157
711,0.179406
709,0.179648
707,0.17992
705,0.179977
703,0.180263
701,0.180443
699,0.180425
697,0.180291
695,0.179967
693,0.179779
691,0.179498
689,0.179174
687,0.178783
685,0.178641
683,0.178182
681,0.17788
679,0.177408
677,0.177127
675,0.176794
673,0.176509
671,0.176038
669,0.17561
667,0.175151
665,0.174831
663,0.174459
661,0.174211
659,0.173994
657,0.173645
655,0.173444
653,0.17336
651,0.172964
649,0.172787
647,0.172584
645,0.172322
643,0.172224
641,0.171557
639,0.171428
637,0.171179
635,0.170747
633,0.17045
631,0.170252
629,0.16993
627,0.169786
625,0.169756
623,0.169515
621,0.169394
619,0.16914
617,0.169267
615,0.169174
613,0.169377
611,0.169469
609,0.169663
607,0.169747
605,0.170081
603,0.17055
601,0.171169
599,0.171441
597,0.172045
595,0.172353
593,0.172801
591,0.173294
589,0.173513
587,0.173775
585,0.174015
583,0.174355
581,0.174456
579,0.174771
577,0.174919
575,0.175264
573,0.175877
571,0.176462
569,0.177135
567,0.178269
565,0.179285
563,0.179986
561,0.180745
559,0.181623
557,0.182261
555,0.182601
553,0.182762
551,0.182672
549,0.182536
547,0.182311
545,0.18195
543,0.181868
541,0.181615
539,0.181774
537,0.182246
535,0.183009
533,0.183673
531,0.184613
529,0.185159
527,0.186142
525,0.186761
523,0.187083
521,0.187468
519,0.187826
517,0.187772
515,0.187936
513,0.188026
511,0.188158
509,0.188835
507,0.189204
505,0.190163
503,0.19083
501,0.191779
499,0.193107
497,0.19409
495,0.195146
493,0.195856
491,0.196026
489,0.195677
487,0.195536
485,0.194559
483,0.194157
481,0.193666
479,0.193829
477,0.193963
475,0.194754
473,0.195763
471,0.197058
469,0.198017
467,0.198577
465,0.199024
463,0.19879
461,0.197912
459,0.1975272
457,0.196842
455,0.19668
453,0.196609
451,0.197227
449,0.197595
447,0.198466
445,0.199209
443,0.200735
441,0.201168
439,0.201557
437,0.20203
435,0.202648
433,0.203131
431,0.203471
429,0.204224
427,0.205318
425,0.206094
423,0.207309
421,0.208002
419,0.208473
417,0.208574
415,0.208687
413,0.209055
411,0.209693
409,0.210627
407,0.211162
405,0.212719
403,0.214244
401,0.21536
399,0.216624
397,0.217168
395,0.217491
393,0.218099
391,0.218794
389,0.219662
387,0.220184
385,0.221414
383,0.222858
381,0.224328
379,0.225559
377,0.227554
375,0.22891
373,0.230825
371,0.232458
369,0.233608
367,0.234566
365,0.236104
363,0.236387
361,0.237709
359,0.240058
357,0.241686
355,0.244147
353,0.246138
351,0.248478
349,0.248397
347,0.249845
345,0.25203
343,0.253523
341,0.255611
339,0.258289
337,0.260275
335,0.262989
333,0.265063
331,0.267205
329,0.269411
327,0.271552
325,0.275071
323,0.277337
321,0.281655
319,0.284631
317,0.288113
315,0.291585
313,0.295873
311,0.299297
309,0.303831
307,0.308144
305,0.313248
303,0.317817
301,0.322839
299,0.326946
297,0.331916
295,0.337277
293,0.342907
291,0.34789
289,0.353718
287,0.358706
285,0.363329
283,0.368055
281,0.371918
279,0.376191
277,0.37914
275,0.381691
273,0.382781
271,0.383656
269,0.383227
267,0.38282
265,0.382047
263,0.38018
261,0.377216
259,0.374561
257,0.370976
255,0.368371
253,0.363207
251,0.358587
249,0.352646
247,0.346418
245,0.338894
243,0.330684
241,0.323
239,0.315654
237,0.308684
235,0.302622
233,0.297585
231,0.293133
229,0.289817
227,0.288034
225,0.289278
223,0.295254
221,0.308075
219,0.331123
217,0.36462
215,0.407821
213,0.454407
211,0.498849
209,0.534879
207,0.55802
205,0.567809
203,0.562146
201,0.545645
200,0.53685