File: Absorption_Analysis/Absorption - Correction Files/Absorption BG Susbtraction/DodecaneCryostatFilm/Dodecane_KIT_N2_B.txt
Dodecane_KIT_N2_B
Wavelength (nm),Abs
2655,0.0760856
2653,0.07818
2651,0.0770079
2649,0.0777076
2647,0.0782612
2645,0.0808141
2643,0.0778298
2641,0.0786466
2639,0.0785708
2637,0.079057
2635,0.0759867
2633,0.0780103
2631,0.0707822
2629,0.0787142
2627,0.0798144
2625,0.0791143
2623,0.0785773
2621,0.0747577
2619,0.0797288
2617,0.0760803
2615,0.0795629
2613,0.0791457
2611,0.0788296
2609,0.0789408
2607,0.0788674
2605,0.078526
2603,0.0783477
2601,0.0786322
2599,0.0782183
2597,0.0748229
2595,0.0748365
2593,0.0796491
2591,0.0783984
2589,0.0767281
2587,0.0808616
2585,0.0759788
2583,0.0806399
2581,0.0789664
2579,0.0791741
2577,0.081142
2575,0.0805009
2573,0.0811786
2571,0.0794418
2569,0.0794898
2567,0.079728
2565,0.0797622
2563,0.0775155
2561,0.0800235
2559,0.080894
2557,0.0800486
2555,0.0807714
2553,0.0800661
2551,0.0802893
2549,0.0802441
2547,0.0803349
2545,0.0808576
2543,0.0803249
2541,0.0803413
2539,0.0809493
2537,0.0804251
2535,0.0801011
2533,0.0802562
2531,0.0804325
2529,0.0811885
2527,0.0813629
2525,0.0812037
2523,0.0816837
2521,0.081845
2519,0.0815741
2517,0.0813593
2515,0.0816525
2513,0.081638
2511,0.0817673
2509,0.081408
2507,0.0816633
2505,0.0817716
2503,0.0823105
2501,0.0822331
2499,0.0819716
2497,0.0823698
2495,0.0820922
2493,0.0824363
2491,0.0823536
2489,0.0823682
2487,0.0827616
2485,0.0827775
2483,0.0826905
2481,0.0826216
2479,0.0825689
2477,0.0828359
2475,0.0827862
2473,0.0829251
2471,0.0831402
2469,0.0828745
2467,0.0834482
2465,0.0830129
2463,0.08332
2461,0.0834927
2459,0.083489
2457,0.0834894
2455,0.0838639
2453,0.0836705
2451,0.084084
2449,0.0839268
2447,0.0839983
2445,0.0843039
2443,0.0840275
2441,0.0843124
2439,0.0845448
2437,0.0843506
2435,0.0848589
2433,0.0846314
2431,0.0847504
2429,0.0850954
2427,0.0848184
2425,0.0851427
2423,0.0850422
2421,0.0849801
2419,0.0853818
2417,0.0854993
2415,0.0853087
2413,0.0856908
2411,0.0855606
2409,0.0856037
2407,0.0861782
2405,0.0860662
2403,0.0860518
2401,0.0864291
2399,0.0863153
2397,0.0863953
2395,0.0868222
2393,0.0866107
2391,0.0868507
2389,0.0872664
2387,0.0869317
2385,0.0874336
2383,0.0875436
2381,0.0874935
2379,0.0878759
2377,0.0877877
2375,0.0881105
2373,0.0881967
2371,0.0880298
2369,0.0885339
2367,0.0884834
2365,0.0888483
2363,0.0887562
2361,0.0890342
2359,0.0892526
2357,0.0893356
2355,0.0896585
2353,0.0896832
2351,0.0899221
2349,0.0901533
2347,0.0904127
2345,0.0904722
2343,0.0906783
2341,0.0910117
2339,0.0909266
2337,0.0913979
2335,0.0913177
2333,0.0916121
2331,0.0917763
2329,0.092009
2327,0.0922584
2325,0.0921712
2323,0.0927286
2321,0.0927882
2319,0.0930172
2317,0.0930958
2315,0.093667
2313,0.0935126
2311,0.094019
2309,0.094297
2307,0.0944171
2305,0.0945497
2303,0.0949499
2301,0.0950997
2299,0.0951875
2297,0.0954751
2295,0.095831
2293,0.0959095
2291,0.0964021
2289,0.0970052
2287,0.0967985
2285,0.0971629
2283,0.0974879
2281,0.0976428
2279,0.0976317
2277,0.0974953
2275,0.0983912
2273,0.0983807
2271,0.098869
2269,0.0991729
2267,0.0999499
2265,0.0997973
2263,0.100149
2261,0.100327
2259,0.100957
2257,0.101064
2255,0.101246
2253,0.101873
2251,0.102044
2249,0.102393
2247,0.102312
2245,0.103142
2243,0.103143
2241,0.103573
2239,0.1038
2237,0.104307
2235,0.104649
2233,0.104725
2231,0.10565
2229,0.105599
2227,0.106258
2225,0.106453
2223,0.106837
2221,0.107464
2219,0.107574
2217,0.108241
2215,0.108475
2213,0.109112
2211,0.109555
2209,0.109722
2207,0.110297
2205,0.110543
2203,0.111061
2201,0.111662
2199,0.111572
2197,0.112103
2195,0.112625
2193,0.112927
2191,0.113141
2189,0.113793
2187,0.114005
2185,0.114449
2183,0.114954
2181,0.115103
2179,0.115824
2177,0.116414
2175,0.116687
2173,0.117325
2171,0.117641
2169,0.11812
2167,0.118655
2165,0.119133
2163,0.119376
2161,0.120127
2159,0.120442
2157,0.120978
2155,0.121438
2153,0.121878
2151,0.122466
2149,0.123109
2147,0.123554
2145,0.123952
2143,0.124314
2141,0.124952
2139,0.125651
2137,0.126138
2135,0.126681
2133,0.127154
2131,0.127791
2129,0.128107
2127,0.128699
2125,0.129471
2123,0.129963
2121,0.130476
2119,0.131145
2117,0.13168
2115,0.1323
2113,0.132852
2111,0.133477
2109,0.134232
2107,0.134856
2105,0.135377
2103,0.135892
2101,0.136843
2099,0.137374
2097,0.137869
2095,0.138736
2093,0.139349
2091,0.140002
2089,0.140757
2087,0.141417
2085,0.142054
2083,0.143012
2081,0.14358
2079,0.144235
2077,0.144967
2075,0.145704
2073,0.146434
2071,0.147303
2069,0.147946
2067,0.148805
2065,0.149354
2063,0.150115
2061,0.150997
2059,0.151715
2057,0.152647
2055,0.153379
2053,0.15425
2051,0.154786
2049,0.155598
2047,0.15627
2045,0.157322
2043,0.158156
2041,0.158875
2039,0.159705
2037,0.160457
2035,0.161221
2033,0.162082
2031,0.163058
2029,0.1637
2027,0.164548
2025,0.165419
2023,0.166148
2021,0.16689
2019,0.167869
2017,0.168581
2015,0.16945
2013,0.170238
2011,0.171061
2009,0.171854
2007,0.172694
2005,0.173532
2003,0.174216
2001,0.174965
1999,0.175881
1997,0.176875
1995,0.177309
1993,0.178299
1991,0.179072
1989,0.179764
1987,0.180578
1985,0.181271
1983,0.181922
1981,0.182712
1979,0.183481
1977,0.184162
1975,0.184899
1973,0.185618
1971,0.186414
1969,0.187137
1967,0.18784
1965,0.1886
1963,0.189205
1961,0.189918
1959,0.190513
1957,0.191298
1955,0.191932
1953,0.19256
1951,0.193359
1949,0.194092
1947,0.194694
1945,0.195439
1943,0.196103
1941,0.196809
1939,0.197674
1937,0.198257
1935,0.198933
1933,0.199752
1931,0.20048
1929,0.20119
1927,0.201971
1925,0.202523
1923,0.203402
1921,0.203914
1919,0.205176
1917,0.20556
1915,0.206211
1913,0.207131
1911,0.207776
1909,0.208505
1907,0.208719
1905,0.210179
1903,0.210758
1901,0.210946
1899,0.21236
1897,0.212851
1895,0.213372
1893,0.214313
1891,0.214831
1889,0.215697
1887,0.21626
1885,0.216885
1883,0.217592
1881,0.218174
1879,0.218438
1877,0.219305
1875,0.219696
1873,0.220331
1871,0.220958
1869,0.221242
1867,0.222469
1865,0.222494
1863,0.223005
1861,0.222913
1859,0.224043
1857,0.224314
1855,0.224209
1853,0.225355
1851,0.225002
1849,0.224925
1847,0.225926
1845,0.22568
1843,0.225574
1841,0.226215
1839,0.226154
1837,0.226198
1835,0.226561
1833,0.226153
1831,0.2263
1829,0.226366
1827,0.226014
1825,0.225997
1823,0.22588
1821,0.225879
1819,0.225533
1817,0.225158
1815,0.225031
1813,0.224677
1811,0.224347
1809,0.224026
1807,0.223629
1805,0.223321
1803,0.222743
1801,0.222454
1799,0.221882
1797,0.221443
1795,0.220834
1793,0.220361
1791,0.219877
1789,0.219391
1787,0.218927
1785,0.21831
1783,0.217646
1781,0.2171
1779,0.216494
1777,0.215906
1775,0.215171
1773,0.214528
1771,0.214015
1769,0.21332
1767,0.212744
1765,0.212039
1763,0.211354
1761,0.210693
1759,0.21008
1757,0.209441
1755,0.208789
1753,0.208086
1751,0.207442
1749,0.206709
1747,0.206098
1745,0.2054
1743,0.204688
1741,0.203989
1739,0.203412
1737,0.202794
1735,0.202065
1733,0.201279
1731,0.200689
1729,0.19989
1727,0.199168
1725,0.198416
1723,0.197681
1721,0.197038
1719,0.196208
1717,0.195446
1715,0.194799
1713,0.193945
1711,0.19316
1709,0.192306
1707,0.191592
1705,0.190725
1703,0.189887
1701,0.189066
1699,0.18834
1697,0.187491
1695,0.186641
1693,0.185853
1691,0.184957
1689,0.184082
1687,0.183387
1685,0.182427
1683,0.181603
1681,0.180843
1679,0.179945
1677,0.17909
1675,0.178264
1673,0.177477
1671,0.176745
1669,0.175866
1667,0.175134
1665,0.17432
1663,0.173452
1661,0.172627
1659,0.171816
1657,0.171029
1655,0.170272
1653,0.169397
1651,0.168671
1649,0.167796
1647,0.167028
1645,0.1663
1643,0.165437
1641,0.164698
1639,0.163832
1637,0.163069
1635,0.162359
1633,0.16149
1631,0.160763
1629,0.160065
1627,0.15925
1625,0.15863
1623,0.157794
1621,0.157119
1619,0.156363
1617,0.155681
1615,0.154992
1613,0.15425
1611,0.153659
1609,0.152964
1607,0.152322
1605,0.151763
1603,0.151152
1601,0.150508
1599,0.149966
1597,0.149361
1595,0.148856
1593,0.148332
1591,0.147798
1589,0.147387
1587,0.14678
1585,0.146382
1583,0.145908
1581,0.145541
1579,0.145069
1577,0.144606
1575,0.144205
1573,0.143765
1571,0.143412
1569,0.143041
1567,0.142714
1565,0.142368
1563,0.142007
1561,0.14173
1559,0.141411
1557,0.141055
1555,0.140706
1553,0.1405
1551,0.140197
1549,0.13993
1547,0.139664
1545,0.139424
1543,0.139174
1541,0.138853
1539,0.138698
1537,0.138467
1535,0.138249
1533,0.138074
1531,0.137835
1529,0.137664
1527,0.137485
1525,0.137275
1523,0.137125
1521,0.136957
1519,0.136718
1517,0.136576
1515,0.136443
1513,0.136309
1511,0.136119
1509,0.136029
1507,0.135906
1505,0.135695
1503,0.135664
1501,0.135453
1499,0.135354
1497,0.135283
1495,0.135095
1493,0.1351
1491,0.134913
1489,0.134839
1487,0.134805
1485,0.134659
1483,0.134616
1481,0.134509
1479,0.134436
1477,0.134346
1475,0.134236
1473,0.134216
1471,0.134062
1469,0.134045
1467,0.134007
1465,0.133906
1463,0.133842
1461,0.133774
1459,0.133768
1457,0.13367
1455,0.133629
1453,0.133534
1451,0.133496
1449,0.13345
1447,0.133368
1445,0.13337
1443,0.133276
1441,0.133223
1439,0.133139
1437,0.133157
1435,0.133036
1433,0.133044
1431,0.133004
1429,0.132877
1427,0.132891
1425,0.132802
1423,0.132777
1421,0.132716
1419,0.13263
1417,0.132625
1415,0.13261
1413,0.13254
1411,0.132429
1409,0.132405
1407,0.132407
1405,0.132367
1403,0.132284
1401,0.132344
1399,0.132294
1397,0.132111
1395,0.132292
1393,0.132058
1391,0.132067
1389,0.131941
1387,0.131936
1385,0.131897
1383,0.132006
1381,0.131991
1379,0.131868
1377,0.131936
1375,0.131772
1373,0.13159
1371,0.131641
1369,0.131552
1367,0.131529
1365,0.131443
1363,0.131354
1361,0.131585
1359,0.131367
1357,0.131319
1355,0.131305
1353,0.131331
1351,0.131285
1349,0.131265
1347,0.131247
1345,0.131235
1343,0.131187
1341,0.131228
1339,0.131235
1337,0.131274
1335,0.131264
1333,0.131244
1331,0.131287
1329,0.131317
1327,0.131292
1325,0.131354
1323,0.131331
1321,0.131387
1319,0.131453
1317,0.131446
1315,0.131558
1313,0.131579
1311,0.131611
1309,0.131706
1307,0.131717
1305,0.131812
1303,0.131902
1301,0.13197
1299,0.132071
1297,0.13214
1295,0.132248
1293,0.132333
1291,0.132434
1289,0.13262
1287,0.132708
1285,0.132832
1283,0.132967
1281,0.133141
1279,0.13327
1277,0.133426
1275,0.133601
1273,0.133736
1271,0.134004
1269,0.134185
1267,0.134371
1265,0.134565
1263,0.134827
1261,0.135044
1259,0.135284
1257,0.135547
1255,0.1357795
1253,0.136087
1251,0.136376
1249,0.136588
1247,0.136932
1245,0.137245
1243,0.137552
1241,0.137825
1239,0.13814
1237,0.138478
1235,0.138786
1233,0.139194
1231,0.139532
1229,0.139921
1227,0.140307
1225,0.14066
1223,0.141107
1221,0.141478
1219,0.14193
1217,0.142405
1215,0.142839
1213,0.143351
1211,0.143846
1209,0.144306
1207,0.144861
1205,0.145375
1203,0.145868
1201,0.146477
1199,0.14684
1197,0.147392
1195,0.147992
1193,0.148649
1191,0.149135
1189,0.149817
1187,0.150418
1185,0.15106
1183,0.151683
1181,0.152295
1179,0.152988
1177,0.153636
1175,0.154244
1173,0.154917
1171,0.15554
1169,0.1562
1167,0.156893
1165,0.157481
1163,0.158161
1161,0.158823
1159,0.159478
1157,0.160174
1155,0.160815
1153,0.161532
1151,0.162262
1149,0.162958
1147,0.163759
1145,0.164525
1143,0.165419
1141,0.166239
1139,0.167145
1137,0.168087
1135,0.169067
1133,0.170095
1131,0.171097
1129,0.17213
1127,0.173219
1125,0.174334
1123,0.175474
1121,0.176588
1119,0.177759
1117,0.178874
1115,0.179991
1113,0.181144
1111,0.182255
1109,0.183321
1107,0.184412
1105,0.185419
1103,0.186354
1101,0.18729
1099,0.188145
1097,0.188923
1095,0.189606
1093,0.190253
1091,0.190866
1089,0.19134
1087,0.191851
1085,0.192193
1083,0.192595
1081,0.193018
1079,0.193253
1077,0.193574
1075,0.193938
1073,0.194346
1071,0.19472
1069,0.195095
1067,0.195529
1065,0.196061
1063,0.196589
1061,0.19712
1059,0.197795
1057,0.198445
1055,0.199153
1053,0.199893
1051,0.200659
1049,0.201423
1047,0.202212
1045,0.202951
1043,0.20365
1041,0.204422
1039,0.204943
1037,0.2056
1035,0.206113
1033,0.206563
1031,0.206927
1029,0.207154
1027,0.207323
1025,0.20754
1023,0.207451
1021,0.207428
1019,0.207263
1017,0.207071
1015,0.206831
1013,0.206457
1011,0.206167
1009,0.205706
1007,0.205328
1005,0.204916
1003,0.204337
1001,0.203848
999,0.203287
997,0.202702
995,0.20211
993,0.201411
991,0.200688
989,0.199956
987,0.199305
985,0.198516
983,0.197768
981,0.197056
979,0.196309
977,0.195557
975,0.194994
973,0.194304
971,0.193529
969,0.193049
967,0.192419
965,0.191829
963,0.191272
961,0.19072
959,0.190213
957,0.189597
955,0.188954
953,0.188385
951,0.187742
949,0.187043
947,0.1863
945,0.185712
943,0.184856
941,0.184099
939,0.18345
937,0.182569
935,0.18185
933,0.181044
931,0.180387
929,0.179567
927,0.178747
925,0.178091
923,0.177243
921,0.176379
919,0.175511
917,0.174772
915,0.174062
913,0.173259
911,0.172292
909,0.171583
907,0.170843
905,0.170123
903,0.169552
901,0.168806
899,0.166069
897,0.163325
895,0.170456
893,0.16682
891,0.164765
889,0.166463
887,0.161985
885,0.166689
883,0.167702
881,0.161889
879,0.163325
877,0.166587
875,0.162802
873,0.161649
871,0.163642
869,0.163221
867,0.15979
865,0.159868
863,0.162908
861,0.161885
859,0.161437
857,0.162241
855,0.159682
853,0.161019
851,0.160286
849,0.160829
847,0.159873
845,0.159979
843,0.159936
841,0.159816
839,0.158866
837,0.159489
835,0.159529
833,0.159845
831,0.160016
829,0.160082
827,0.160375
825,0.160522
823,0.160425
821,0.160679
819,0.16119
817,0.161232
815,0.161978
813,0.162107
811,0.163058
809,0.16346
807,0.163641
805,0.164154
803,0.16467
801,0.165258
799,0.165549
797,0.166764
795,0.166781
793,0.16702
791,0.167705
789,0.168286
787,0.168739
785,0.168794
783,0.1695
781,0.170275
779,0.170511
777,0.171292
775,0.171737
773,0.172418
771,0.173212
769,0.17425
767,0.175176
765,0.175986
763,0.17711
761,0.17803
759,0.179316
757,0.180141
755,0.181551
753,0.182442
751,0.183127
749,0.184285
747,0.184834
745,0.185429
743,0.185901
741,0.186337
739,0.18686
737,0.186909
735,0.187046
733,0.186964
731,0.187577
729,0.187511
727,0.187706
725,0.187925
723,0.187979
721,0.188485
719,0.188647
717,0.18883
715,0.189253
713,0.189819
711,0.19033
709,0.190551
707,0.190884
705,0.191148
703,0.19134
701,0.191259
699,0.191382
697,0.191118
695,0.191081
693,0.190801
691,0.190495
689,0.190147
687,0.189647
685,0.189715
683,0.189111
681,0.188658
679,0.18853
677,0.188109
675,0.187738
673,0.187268
671,0.186926
669,0.186518
667,0.186052
665,0.185693
663,0.185508
661,0.185263
659,0.185004
657,0.184597
655,0.184522
653,0.18431
651,0.183962
649,0.183696
647,0.183539
645,0.183262
643,0.183096
641,0.182565
639,0.182479
637,0.182124
635,0.181797
633,0.181666
631,0.181317
629,0.18106
627,0.180922
625,0.180708
623,0.180666
621,0.180585
619,0.180253
617,0.180392
615,0.180409
613,0.180359
611,0.180497
609,0.180587
607,0.180772
605,0.181232
603,0.181676
601,0.182325
599,0.182716
597,0.183209
595,0.183743
593,0.184267
591,0.184518
589,0.185098
587,0.185277
585,0.185453
583,0.185705
581,0.185763
579,0.185973
577,0.186282
575,0.186495
573,0.187232
571,0.187692
569,0.188388
567,0.189374
565,0.190571
563,0.191638
561,0.192475
559,0.193131
557,0.193945
555,0.194255
553,0.194758
551,0.194323
549,0.194356
547,0.193946
545,0.193518
543,0.193305
541,0.193406
539,0.193394
537,0.193902
535,0.194545
533,0.195097
531,0.196257
529,0.196969
527,0.197788
525,0.198323
523,0.198987
521,0.199393
519,0.199742
517,0.199493
515,0.19976
513,0.199586
511,0.200112
509,0.200527
507,0.200962
505,0.201668
503,0.202719
501,0.203505
499,0.205118
497,0.206052
495,0.206965
493,0.207739
491,0.207846
489,0.207744
487,0.207353
485,0.206349
483,0.205993
481,0.20552
479,0.205541
477,0.205927
475,0.206666
473,0.207769
471,0.209016
469,0.209848
467,0.210789
465,0.211008
463,0.210658
461,0.21022
459,0.209308
457,0.208812
455,0.208464
453,0.208634
451,0.209032
449,0.209722
447,0.210791
445,0.21163
443,0.212441
441,0.213307
439,0.213829
437,0.214071
435,0.214435
433,0.215113
431,0.215827
429,0.21632
427,0.217454
425,0.218497
423,0.219213
421,0.220124
419,0.22076
417,0.220873
415,0.221045
413,0.221517
411,0.221954
409,0.222784
407,0.223941
405,0.225255
403,0.226647
401,0.227885
399,0.229492
397,0.23006
395,0.230638
393,0.231123
391,0.231629
389,0.23262
387,0.23334
385,0.234169
383,0.235984
381,0.237604
379,0.23899
377,0.240798
375,0.242162
373,0.244041
371,0.24597
369,0.247117
367,0.248186
365,0.249303
363,0.249902
361,0.251137
359,0.252857
357,0.255361
355,0.258022
353,0.25929
351,0.262256
349,0.261017
347,0.262915
345,0.264143
343,0.266001
341,0.267903
339,0.270161
337,0.272396
335,0.275975
333,0.277328
331,0.279938
329,0.282343
327,0.284823
325,0.287289
323,0.290166
321,0.294334
319,0.296709
317,0.30088
315,0.304279
313,0.308644
311,0.311023
309,0.31602
307,0.320583
305,0.325462
303,0.329766
301,0.334038
299,0.339292
297,0.344153
295,0.349415
293,0.354787
291,0.359979
289,0.365598
287,0.370986
285,0.376116
283,0.3802
281,0.384669
279,0.388376
277,0.392596
275,0.394409
273,0.396188
271,0.396828
269,0.396791
267,0.396503
265,0.395611
263,0.393796
261,0.391402
259,0.38888
257,0.384999
255,0.382239
253,0.377396
251,0.372512
249,0.367101
247,0.360472
245,0.353186
243,0.344806
241,0.337757
239,0.329902
237,0.323843
235,0.317835
233,0.31288
231,0.308252
229,0.305366
227,0.302995
225,0.303343
223,0.308929
221,0.321478
219,0.344862
217,0.378507
215,0.421248
213,0.467671
211,0.513682
209,0.550404
207,0.573284
205,0.582209
203,0.577919
201,0.563641
200,0.552608