File: AbsorptionAnalysis/Absorption_Test_BackgroundSubstractions/DodecaneCryostatFilm/Dodecane_KIT_Air_B.txt
Dodecane_KIT_Air_B
Wavelength (nm),Abs
2655,0.0855034
2653,0.0799511
2651,0.0837613
2649,0.0854017
2647,0.0832683
2645,0.0850906
2643,0.0835025
2641,0.0850235
2639,0.084475
2637,0.0845325
2635,0.0836156
2633,0.0831494
2631,0.0803529
2629,0.084173
2627,0.0835825
2625,0.083576
2623,0.0840233
2621,0.0822833
2619,0.0861016
2617,0.0875477
2615,0.0843568
2613,0.0860756
2611,0.0844045
2609,0.0857165
2607,0.0822196
2605,0.0839292
2603,0.0825149
2601,0.0846798
2599,0.083549
2597,0.0834157
2595,0.0863578
2593,0.0872593
2591,0.0832468
2589,0.0841806
2587,0.0856344
2585,0.08225
2583,0.0833989
2581,0.08628
2579,0.083761
2577,0.0832384
2575,0.0826667
2573,0.0836965
2571,0.0827295
2569,0.0842591
2567,0.0844518
2565,0.0830664
2563,0.0837409
2561,0.0847472
2559,0.0839102
2557,0.08432
2555,0.083656
2553,0.0840296
2551,0.0856243
2549,0.0838398
2547,0.0850591
2545,0.0843974
2543,0.0850619
2541,0.0841365
2539,0.084768
2537,0.0842317
2535,0.0843939
2533,0.0847442
2531,0.0848534
2529,0.0843869
2527,0.0842515
2525,0.0843018
2523,0.0844385
2521,0.0847812
2519,0.0842255
2517,0.08455
2515,0.08474
2513,0.0845033
2511,0.0847494
2509,0.0846381
2507,0.084745
2505,0.0847819
2503,0.0848299
2501,0.08511
2499,0.084789
2497,0.0851776
2495,0.0854285
2493,0.0851892
2491,0.0850919
2489,0.0853189
2487,0.0852708
2485,0.0853942
2483,0.085614
2481,0.0855593
2479,0.0855995
2477,0.0859346
2475,0.0857604
2473,0.0860277
2471,0.0859755
2469,0.0859073
2467,0.0863902
2465,0.0860322
2463,0.0865116
2461,0.0865683
2459,0.0863553
2457,0.0866063
2455,0.0867094
2453,0.0866852
2451,0.0871365
2449,0.086861
2447,0.0867452
2445,0.0870898
2443,0.0872369
2441,0.0871657
2439,0.0875774
2437,0.0875207
2435,0.0876605
2433,0.0877623
2431,0.087961
2429,0.0880034
2427,0.0880872
2425,0.088369
2423,0.0883154
2421,0.0883165
2419,0.0886941
2417,0.0884234
2415,0.0887495
2413,0.0889392
2411,0.0889758
2409,0.0891307
2407,0.0894335
2405,0.0893459
2403,0.0896731
2401,0.0896636
2399,0.089848
2397,0.0900036
2395,0.0901488
2393,0.0901668
2391,0.0904385
2389,0.0904683
2387,0.0907598
2385,0.0907839
2383,0.0909309
2381,0.0909765
2379,0.0910913
2377,0.0914262
2375,0.0914846
2373,0.0917076
2371,0.0919163
2369,0.0919249
2367,0.0922497
2365,0.0923516
2363,0.0924972
2361,0.0929148
2359,0.0928954
2357,0.0932837
2355,0.093177
2353,0.0935984
2351,0.0936318
2349,0.0938083
2347,0.0943319
2345,0.0941393
2343,0.0947334
2341,0.0944912
2339,0.0949449
2337,0.0950136
2335,0.0952063
2333,0.0955105
2331,0.0955134
2329,0.0961084
2327,0.095875
2325,0.0964385
2323,0.096376
2321,0.0967688
2319,0.0967338
2317,0.0971784
2315,0.0975612
2313,0.0977102
2311,0.0978597
2309,0.0980032
2307,0.0983534
2305,0.0983355
2303,0.0989396
2301,0.0989349
2299,0.099407
2297,0.099008
2295,0.0997862
2293,0.0996198
2291,0.100265
2289,0.100564
2287,0.100823
2285,0.101044
2283,0.101257
2281,0.101491
2279,0.10159
2277,0.101601
2275,0.102103
2273,0.1027
2271,0.102701
2269,0.103188
2267,0.103584
2265,0.104134
2263,0.103843
2261,0.104779
2259,0.104743
2257,0.105329
2255,0.105146
2253,0.106173
2251,0.106118
2249,0.106505
2247,0.106751
2245,0.107417
2243,0.107747
2241,0.107796
2239,0.108534
2237,0.109004
2235,0.109264
2233,0.109597
2231,0.109887
2229,0.110489
2227,0.110707
2225,0.111161
2223,0.111509
2221,0.111987
2219,0.112536
2217,0.112441
2215,0.113154
2213,0.113298
2211,0.113903
2209,0.11435
2207,0.114491
2205,0.115362
2203,0.115695
2201,0.116156
2199,0.116339
2197,0.116861
2195,0.117378
2193,0.118246
2191,0.118256
2189,0.118738
2187,0.119465
2185,0.119627
2183,0.119896
2181,0.120606
2179,0.120854
2177,0.121621
2175,0.121962
2173,0.122266
2171,0.122929
2169,0.123642
2167,0.123862
2165,0.12453
2163,0.124973
2161,0.12535
2159,0.125848
2157,0.126711
2155,0.126818
2153,0.127295
2151,0.128064
2149,0.128565
2147,0.128925
2145,0.129692
2143,0.130153
2141,0.130832
2139,0.131218
2137,0.131983
2135,0.132551
2133,0.132976
2131,0.133655
2129,0.134188
2127,0.134792
2125,0.135217
2123,0.136045
2121,0.136527
2119,0.137094
2117,0.137779
2115,0.138336
2113,0.139184
2111,0.139585
2109,0.140109
2107,0.141002
2105,0.14172
2103,0.142319
2101,0.143015
2099,0.143531
2097,0.14452
2095,0.145351
2093,0.145828
2091,0.146496
2089,0.14701
2087,0.147959
2085,0.148695
2083,0.149402
2081,0.150175
2079,0.150966
2077,0.151612
2075,0.15234
2073,0.15321
2071,0.153996
2069,0.154898
2067,0.155644
2065,0.156284
2063,0.157199
2061,0.158005
2059,0.158753
2057,0.159609
2055,0.160366
2053,0.161204
2051,0.161905
2049,0.162861
2047,0.16357
2045,0.164527
2043,0.165472
2041,0.166398
2039,0.167182
2037,0.167872
2035,0.168674
2033,0.169614
2031,0.170475
2029,0.171431
2027,0.172021
2025,0.173071
2023,0.173699
2021,0.174774
2019,0.175688
2017,0.176425
2015,0.177422
2013,0.178288
2011,0.17897
2009,0.179765
2007,0.180725
2005,0.181547
2003,0.182545
2001,0.183115
1999,0.184
1997,0.184893
1995,0.185688
1993,0.18653
1991,0.187406
1989,0.188144
1987,0.188877
1985,0.189673
1983,0.190411
1981,0.19132
1979,0.192116
1977,0.192832
1975,0.193531
1973,0.194239
1971,0.195023
1969,0.195735
1967,0.196386
1965,0.197129
1963,0.197938
1961,0.198772
1959,0.199527
1957,0.200105
1955,0.200878
1953,0.20151
1951,0.202268
1949,0.203039
1947,0.203644
1945,0.204536
1943,0.204984
1941,0.205975
1939,0.206636
1937,0.207342
1935,0.208164
1933,0.208803
1931,0.209566
1929,0.210379
1927,0.210961
1925,0.21144
1923,0.212613
1921,0.21323
1919,0.214234
1917,0.214713
1915,0.215258
1913,0.216451
1911,0.21719
1909,0.217628
1907,0.218162
1905,0.219402
1903,0.220157
1901,0.220205
1899,0.221509
1897,0.222005
1895,0.222573
1893,0.223554
1891,0.224237
1889,0.224877
1887,0.225465
1885,0.225974
1883,0.226676
1881,0.227327
1879,0.227736
1877,0.228353
1875,0.228688
1873,0.229568
1871,0.229854
1869,0.230247
1867,0.231437
1865,0.231243
1863,0.231969
1861,0.232056
1859,0.232816
1857,0.232961
1855,0.232887
1853,0.233909
1851,0.233715
1849,0.233715
1847,0.234724
1845,0.234309
1843,0.234139
1841,0.234828
1839,0.234775
1837,0.234842
1835,0.234871
1833,0.234619
1831,0.234688
1829,0.234656
1827,0.234081
1825,0.23411
1823,0.234064
1821,0.233975
1819,0.233496
1817,0.233098
1815,0.232839
1813,0.232545
1811,0.232226
1809,0.231829
1807,0.231274
1805,0.230864
1803,0.230208
1801,0.229913
1799,0.229398
1797,0.228864
1795,0.228322
1793,0.227772
1791,0.227172
1789,0.226467
1787,0.225902
1785,0.225345
1783,0.224635
1781,0.22407
1779,0.223491
1777,0.222628
1775,0.22194
1773,0.221335
1771,0.22072
1769,0.219938
1767,0.219304
1765,0.218576
1763,0.217893
1761,0.21714
1759,0.216515
1757,0.215921
1755,0.214986
1753,0.21425
1751,0.213552
1749,0.212897
1747,0.212265
1745,0.211468
1743,0.210752
1741,0.20999
1739,0.209295
1737,0.208566
1735,0.207857
1733,0.206987
1731,0.206354
1729,0.205492
1727,0.204725
1725,0.204005
1723,0.203135
1721,0.202492
1719,0.201645
1717,0.200813
1715,0.199939
1713,0.199059
1711,0.198299
1709,0.197535
1707,0.19668
1705,0.195762
1703,0.194965
1701,0.194159
1699,0.193251
1697,0.192399
1695,0.191456
1693,0.190596
1691,0.18971
1689,0.188836
1687,0.187984
1685,0.187087
1683,0.186261
1681,0.185477
1679,0.184391
1677,0.183608
1675,0.182751
1673,0.181949
1671,0.181003
1669,0.180262
1667,0.179385
1665,0.17858
1663,0.177683
1661,0.176887
1659,0.17604
1657,0.175135
1655,0.174379
1653,0.173426
1651,0.172699
1649,0.17176
1647,0.170929
1645,0.170316
1643,0.169359
1641,0.168677
1639,0.167698
1637,0.167001
1635,0.166236
1633,0.165381
1631,0.164656
1629,0.163795
1627,0.162922
1625,0.162348
1623,0.161636
1621,0.160926
1619,0.160235
1617,0.159407
1615,0.158679
1613,0.157935
1611,0.157396
1609,0.156611
1607,0.156023
1605,0.155349
1603,0.154753
1601,0.154215
1599,0.153661
1597,0.15283
1595,0.152332
1593,0.151862
1591,0.151395
1589,0.150914
1587,0.150267
1585,0.149859
1583,0.149379
1581,0.14903
1579,0.148555
1577,0.148088
1575,0.14772
1573,0.147285
1571,0.146837
1569,0.146567
1567,0.146173
1565,0.145774
1563,0.145448
1561,0.145163
1559,0.144779
1557,0.144459
1555,0.144194
1553,0.143887
1551,0.143587
1549,0.143334
1547,0.14317
1545,0.142903
1543,0.142633
1541,0.142268
1539,0.142116
1537,0.14181
1535,0.141683
1533,0.141541
1531,0.141229
1529,0.141018
1527,0.140787
1525,0.140586
1523,0.140528
1521,0.140378
1519,0.140107
1517,0.140067
1515,0.13992
1513,0.139831
1511,0.139505
1509,0.139342
1507,0.139286
1505,0.139222
1503,0.139127
1501,0.138967
1499,0.138734
1497,0.138656
1495,0.138435
1493,0.138514
1491,0.13842
1489,0.138344
1487,0.138204
1485,0.138031
1483,0.138056
1481,0.137978
1479,0.137805
1477,0.13787
1475,0.137692
1473,0.137674
1471,0.137545
1469,0.137495
1467,0.137453
1465,0.137321
1463,0.137244
1461,0.137196
1459,0.137143
1457,0.137043
1455,0.137015
1453,0.136919
1451,0.136937
1449,0.13688
1447,0.136769
1445,0.136725
1443,0.136691
1441,0.136609
1439,0.136522
1437,0.136582
1435,0.136497
1433,0.13641
1431,0.136401
1429,0.136237
1427,0.136144
1425,0.136134
1423,0.136091
1421,0.135998
1419,0.136018
1417,0.135923
1415,0.13595
1413,0.135853
1411,0.135742
1409,0.13585
1407,0.135674
1405,0.135787
1403,0.13561
1401,0.135648
1399,0.135626
1397,0.135466
1395,0.135642
1393,0.135504
1391,0.135598
1389,0.135612
1387,0.135506
1385,0.13542
1383,0.135538
1381,0.135499
1379,0.135206
1377,0.135099
1375,0.134984
1373,0.134944
1371,0.135108
1369,0.134923
1367,0.134841
1365,0.134843
1363,0.13475
1361,0.134972
1359,0.134758
1357,0.134691
1355,0.134657
1353,0.134661
1351,0.134527
1349,0.134585
1347,0.134654
1345,0.1346
1343,0.134539
1341,0.134494
1339,0.134515
1337,0.134564
1335,0.134612
1333,0.134566
1331,0.134571
1329,0.134575
1327,0.134618
1325,0.134635
1323,0.13464
1321,0.134724
1319,0.134785
1317,0.134747
1315,0.134871
1313,0.134908
1311,0.134967
1309,0.135112
1307,0.135121
1305,0.135097
1303,0.135261
1301,0.135398
1299,0.135362
1297,0.135526
1295,0.135714
1293,0.135718
1291,0.13581
1289,0.136012
1287,0.136098
1285,0.13627
1283,0.136387
1281,0.13661
1279,0.136705
1277,0.136798
1275,0.137019
1273,0.137202
1271,0.137523
1269,0.137748
1267,0.137891
1265,0.138072
1263,0.138416
1261,0.138656
1259,0.138913
1257,0.139184
1255,0.139468
1253,0.139598
1251,0.13986
1249,0.140232
1247,0.140581
1245,0.140954
1243,0.141216
1241,0.141629
1239,0.141885
1237,0.142162
1235,0.142549
1233,0.142974
1231,0.143336
1229,0.1437
1227,0.144157
1225,0.144482
1223,0.144994
1221,0.145338
1219,0.14576
1217,0.146251
1215,0.146736
1213,0.147209
1211,0.147632
1209,0.148169
1207,0.148765
1205,0.149383
1203,0.149834
1201,0.150518
1199,0.150768
1197,0.151316
1195,0.151904
1193,0.152597
1191,0.153108
1189,0.153878
1187,0.154522
1185,0.155066
1183,0.155709
1181,0.156392
1179,0.157127
1177,0.157811
1175,0.158362
1173,0.159009
1171,0.159707
1169,0.16041
1167,0.160984
1165,0.161645
1163,0.162268
1161,0.162999
1159,0.163828
1157,0.164505
1155,0.165081
1153,0.165847
1151,0.166471
1149,0.167219
1147,0.168085
1145,0.168826
1143,0.169747
1141,0.170622
1139,0.171389
1137,0.172341
1135,0.173423
1133,0.174431
1131,0.175447
1129,0.176506
1127,0.177632
1125,0.178651
1123,0.179835
1121,0.180955
1119,0.182163
1117,0.183276
1115,0.184434
1113,0.185546
1111,0.186685
1109,0.187718
1107,0.188851
1105,0.189807
1103,0.190751
1101,0.191741
1099,0.192631
1097,0.193367
1095,0.194081
1093,0.194687
1091,0.195291
1089,0.195745
1087,0.196233
1085,0.196589
1083,0.196948
1081,0.197352
1079,0.197769
1077,0.197982
1075,0.198251
1073,0.198634
1071,0.198957
1069,0.199333
1067,0.199813
1065,0.200411
1063,0.200914
1061,0.201534
1059,0.202216
1057,0.202855
1055,0.203562
1053,0.204226
1051,0.204917
1049,0.20571
1047,0.206519
1045,0.207275
1043,0.208009
1041,0.208672
1039,0.209148
1037,0.209755
1035,0.210306
1033,0.210766
1031,0.211119
1029,0.211305
1027,0.211466
1025,0.211578
1023,0.211513
1021,0.211511
1019,0.211306
1017,0.211161
1015,0.210833
1013,0.210507
1011,0.21012
1009,0.20966
1007,0.209347
1005,0.208842
1003,0.208298
1001,0.207747
999,0.207264
997,0.206616
995,0.205916
993,0.205228
991,0.204608
989,0.203824
987,0.203059
985,0.202369
983,0.201456
981,0.200623
979,0.20002
977,0.199225
975,0.198631
973,0.197913
971,0.197282
969,0.196695
967,0.196128
965,0.195399
963,0.19494
961,0.194454
959,0.193883
957,0.193218
955,0.192578
953,0.192022
951,0.19131
949,0.190582
947,0.189912
945,0.189229
943,0.188438
941,0.187714
939,0.186995
937,0.186134
935,0.185439
933,0.18471
931,0.183979
929,0.183073
927,0.182421
925,0.181633
923,0.180689
921,0.179848
919,0.179195
917,0.1783427
915,0.177402
913,0.176696
911,0.175779
909,0.175279
907,0.174481
905,0.17371
903,0.17305
901,0.172323
899,0.174152
897,0.168858
895,0.171382
893,0.165539
891,0.171821
889,0.169203
887,0.169783
885,0.171904
883,0.173718
881,0.16965
879,0.166839
877,0.17204
875,0.165245
873,0.168028
871,0.167187
869,0.164863
867,0.163603
865,0.166865
863,0.165811
861,0.165076
859,0.165033
857,0.165122
855,0.16423
853,0.164723
851,0.164282
849,0.164322
847,0.164352
845,0.165213
843,0.164486
841,0.164057
839,0.163369
837,0.164
835,0.163663
833,0.164326
831,0.164028
829,0.164147
827,0.164353
825,0.164189
823,0.164925
821,0.164688
819,0.165368
817,0.165499
815,0.166003
813,0.166485
811,0.1669
809,0.167119
807,0.167613
805,0.167749
803,0.168536
801,0.168888
799,0.169587
797,0.170504
795,0.170757
793,0.170954
791,0.1714
789,0.172164
787,0.172884
785,0.173006
783,0.173421
781,0.174082
779,0.174418
777,0.175316
775,0.175455
773,0.176721
771,0.177479
769,0.178427
767,0.179388
765,0.179954
763,0.181106
761,0.182096
759,0.183534
757,0.184398
755,0.185635
753,0.186285
751,0.187694
749,0.188606
747,0.189058
745,0.189665
743,0.190126
741,0.190606
739,0.191048
737,0.191283
735,0.191309
733,0.191199
731,0.191537
729,0.191668
727,0.19169
725,0.19196
723,0.192084
721,0.192596
719,0.192553
717,0.193102
715,0.193506
713,0.193976
711,0.19443
709,0.19469
707,0.195063
705,0.195238
703,0.195355
701,0.195449
699,0.195524
697,0.195281
695,0.195177
693,0.194838
691,0.194513
689,0.194298
687,0.19377
685,0.193724
683,0.193328
681,0.192773
679,0.192705
677,0.192103
675,0.191829
673,0.191548
671,0.191049
669,0.190662
667,0.19024
665,0.189836
663,0.189573
661,0.18922
659,0.189007
657,0.188636
655,0.188609
653,0.188408
651,0.188095
649,0.187869
647,0.187793
645,0.187438
643,0.187323
641,0.186714
639,0.186587
637,0.186273
635,0.185794
633,0.185572
631,0.185424
629,0.185274
627,0.184971
625,0.184961
623,0.184623
621,0.184659
619,0.184356
617,0.18438
615,0.184472
613,0.184383
611,0.184724
609,0.184954
607,0.184949
605,0.185326
603,0.185753
601,0.186562
599,0.18707
597,0.187578
595,0.188063
593,0.188728
591,0.189109
589,0.189363
587,0.189659
585,0.190017
583,0.190009
581,0.189957
579,0.190066
577,0.190372
575,0.190741
573,0.19153
571,0.192065
569,0.192785
567,0.19374
565,0.194916
563,0.195813
561,0.196985
559,0.19802
557,0.19875
555,0.199054
553,0.199373
551,0.198919
549,0.198934
547,0.198275
545,0.197994
543,0.197765
541,0.197715
539,0.197758
537,0.198292
535,0.199217
533,0.199853
531,0.200825
529,0.201536
527,0.202483
525,0.203257
523,0.20366
521,0.20386
519,0.204169
517,0.204186
515,0.204355
513,0.204213
511,0.204511
509,0.205172
507,0.205645
505,0.206457
503,0.207492
501,0.208487
499,0.209679
497,0.210746
495,0.211733
493,0.212533
491,0.212527
489,0.212396
487,0.21193
485,0.210994
483,0.210387
481,0.210102
479,0.210063
477,0.21054
475,0.211275
473,0.212475
471,0.213806
469,0.214664
467,0.215335
465,0.215676
463,0.215407
461,0.21454
459,0.213882
457,0.213343
455,0.213108
453,0.213263
451,0.213763
449,0.214327
447,0.215262
445,0.216272
443,0.217318
441,0.218023
439,0.218573
437,0.218947
435,0.219317
433,0.21989
431,0.220313
429,0.220729
427,0.22222
425,0.222752
423,0.224106
421,0.224808
419,0.22548
417,0.225437
415,0.225529
413,0.22589
411,0.226629
409,0.227493
407,0.228446
405,0.229942
403,0.231424
401,0.232394
399,0.233866
397,0.234564
395,0.235261
393,0.235554
391,0.23625
389,0.237302
387,0.238192
385,0.239124
383,0.240538
381,0.242027
379,0.243521
377,0.245016
375,0.246824
373,0.249004
371,0.250308
369,0.251647
367,0.252543
365,0.254235
363,0.254161
361,0.255326
359,0.257777
357,0.260302
355,0.262498
353,0.264349
351,0.266296
349,0.265889
347,0.267911
345,0.269199
343,0.270945
341,0.273372
339,0.275952
337,0.278151
335,0.280828
333,0.282768
331,0.284548
329,0.287057
327,0.289443
325,0.292374
323,0.295229
321,0.299628
319,0.302771
317,0.306277
315,0.309501
313,0.313625
311,0.317245
309,0.321449
307,0.326283
305,0.331128
303,0.335342
301,0.340363
299,0.344643
297,0.349846
295,0.355237
293,0.360433
291,0.366238
289,0.371184
287,0.377211
285,0.381876
283,0.385738
281,0.39048
279,0.39404
277,0.397609
275,0.399813
273,0.401108
271,0.402537
269,0.402521
267,0.401909
265,0.400808
263,0.398938
261,0.396504
259,0.394045
257,0.390589
255,0.387408
253,0.383047
251,0.378017
249,0.372406
247,0.36594
245,0.35856
243,0.350395
241,0.343425
239,0.336693
237,0.329906
235,0.324796
233,0.319083
231,0.315374
229,0.3127
227,0.311835
225,0.312773
223,0.319779
221,0.33347
219,0.357875
217,0.391947
215,0.43452
213,0.480684
211,0.524358
209,0.561275
207,0.582649
205,0.593313
203,0.590189
201,0.577969
200,0.567973