File: AbsorptionAnalysis/Absorption_Test_BackgroundSubstractions/DodecaneCryostatFilm/Dodecane_KIT_Temp_85.txt
Dodecane_KIT_Temp_85
Wavelength (nm),Abs
2655,0.0837566
2653,0.0794324
2651,0.0834591
2649,0.082851
2647,0.0828934
2645,0.0832661
2643,0.0827442
2641,0.0837677
2639,0.0834566
2637,0.0838565
2635,0.0822383
2633,0.0822159
2631,0.0812079
2629,0.082822
2627,0.082941
2625,0.0831593
2623,0.0829047
2621,0.0811221
2619,0.0849758
2617,0.082106
2615,0.083321
2613,0.0848922
2611,0.0830676
2609,0.0844892
2607,0.0798279
2605,0.0810507
2603,0.0811486
2601,0.0848879
2599,0.0833477
2597,0.0823409
2595,0.0821487
2593,0.0860564
2591,0.0829452
2589,0.0836377
2587,0.0846997
2585,0.0818029
2583,0.0823012
2581,0.085964
2579,0.0838471
2577,0.0818652
2575,0.0827254
2573,0.0832415
2571,0.0821364
2569,0.0842942
2567,0.0838102
2565,0.0832054
2563,0.0834031
2561,0.0839931
2559,0.0837754
2557,0.0838384
2555,0.0836871
2553,0.0843478
2551,0.085597
2549,0.0833645
2547,0.0846816
2545,0.0837646
2543,0.0850459
2541,0.0837655
2539,0.0843453
2537,0.0844925
2535,0.0842414
2533,0.0843084
2531,0.0849838
2529,0.0844985
2527,0.0841891
2525,0.0839678
2523,0.0842597
2521,0.0846287
2519,0.0841476
2517,0.0843626
2515,0.0847378
2513,0.08454521
2511,0.0845313
2509,0.0848519
2507,0.0844981
2505,0.084542
2503,0.084812
2501,0.0851601
2499,0.0848866
2497,0.0852067
2495,0.0852102
2493,0.0851298
2491,0.0853304
2489,0.0853035
2487,0.085428
2485,0.0852963
2483,0.0853645
2481,0.0854703
2479,0.0857134
2477,0.0858515
2475,0.0857014
2473,0.0857742
2471,0.0859494
2469,0.0860927
2467,0.0860663
2465,0.0860253
2463,0.0861726
2461,0.0862883
2459,0.0864828
2457,0.0865778
2455,0.0866253
2453,0.0864474
2451,0.0868735
2449,0.086827
2447,0.086816
2445,0.0872048
2443,0.0871694
2441,0.0870963
2439,0.0874005
2437,0.0872622
2435,0.0873673
2433,0.0875719
2431,0.0876893
2429,0.0877204
2427,0.0879075
2425,0.088222
2423,0.0879377
2421,0.0882047
2419,0.0883343
2417,0.0882491
2415,0.0885855
2413,0.0887567
2411,0.088575
2409,0.0889213
2407,0.0892325
2405,0.0891019
2403,0.089362
2401,0.0893912
2399,0.0893779
2397,0.0895125
2395,0.0896814
2393,0.0898519
2391,0.0900271
2389,0.090155
2387,0.090317
2385,0.0904164
2383,0.0906679
2381,0.090732
2379,0.0907842
2377,0.0911611
2375,0.0911375
2373,0.091344
2371,0.0915867
2369,0.0915184
2367,0.0919064
2365,0.0919198
2363,0.0920944
2361,0.092387
2359,0.0924099
2357,0.0929577
2355,0.0927662
2353,0.0931463
2351,0.0931912
2349,0.0933557
2347,0.0937982
2345,0.0936425
2343,0.0941688
2341,0.0939654
2339,0.0944183
2337,0.0944446
2335,0.0947044
2333,0.0949154
2331,0.0949169
2329,0.0955023
2327,0.0953053
2325,0.095762
2323,0.0957137
2321,0.0963185
2319,0.0960941
2317,0.0966648
2315,0.0968019
2313,0.0970122
2311,0.0972252
2309,0.0973723
2307,0.0977473
2305,0.0977809
2303,0.0982752
2301,0.098348
2299,0.098548
2297,0.0985406
2295,0.0990969
2293,0.0991123
2291,0.0994261
2289,0.0997503
2287,0.100001
2285,0.100132
2283,0.100486
2281,0.100624
2279,0.100721
2277,0.101065
2275,0.101209
2273,0.101898
2271,0.101902
2269,0.102646
2267,0.102745
2265,0.103281
2263,0.103095
2261,0.103904
2259,0.103993
2257,0.104271
2255,0.104407
2253,0.1051
2251,0.105412
2249,0.105422
2247,0.106181
2245,0.106314
2243,0.106636
2241,0.106586
2239,0.107514
2237,0.107518
2235,0.108099
2233,0.108569
2231,0.108845
2229,0.109446
2227,0.109397
2225,0.110065
2223,0.110226
2221,0.11066
2219,0.111238
2217,0.111315
2215,0.111751
2213,0.112426
2211,0.11265
2209,0.11306
2207,0.113371
2205,0.11398
2203,0.114374
2201,0.114891
2199,0.115157
2197,0.115592
2195,0.115996
2193,0.116684
2191,0.116681
2189,0.117527
2187,0.117897
2185,0.118184
2183,0.118613
2181,0.119058
2179,0.119244
2177,0.119967
2175,0.120596
2173,0.120929
2171,0.121281
2169,0.122013
2167,0.122359
2165,0.122958
2163,0.123316
2161,0.123668
2159,0.124118
2157,0.124878
2155,0.12518
2153,0.125579
2151,0.126351
2149,0.126804
2147,0.127388
2145,0.127817
2143,0.128405
2141,0.128845
2139,0.129454
2137,0.129954
2135,0.13042
2133,0.131034
2131,0.131602
2129,0.132092
2127,0.132658
2125,0.133183
2123,0.133833
2121,0.134433
2119,0.135081
2117,0.135405
2115,0.136074
2113,0.136988
2111,0.137452
2109,0.137906
2107,0.138747
2105,0.139356
2103,0.139944
2101,0.140806
2099,0.141223
2097,0.142028
2095,0.142723
2093,0.143207
2091,0.143796
2089,0.144656
2087,0.145479
2085,0.145841
2083,0.146894
2081,0.147478
2079,0.148076
2077,0.148801
2075,0.149608
2073,0.150318
2071,0.151106
2069,0.151933
2067,0.152556
2065,0.153368
2063,0.154062
2061,0.154807
2059,0.15564
2057,0.156466
2055,0.157234
2053,0.158032
2051,0.15876
2049,0.159572
2047,0.160291
2045,0.161181
2043,0.161911
2041,0.162869
2039,0.163522
2037,0.164223
2035,0.165106
2033,0.16591
2031,0.16679
2029,0.167644
2027,0.168246
2025,0.169215
2023,0.169942
2021,0.170898
2019,0.171809
2017,0.172485
2015,0.173332
2013,0.174151
2011,0.174853
2009,0.175641
2007,0.176435
2005,0.177284
2003,0.177994
2001,0.178889
1999,0.179826
1997,0.180577
1995,0.181223
1993,0.182113
1991,0.182938
1989,0.183618
1987,0.184295
1985,0.185086
1983,0.185755
1981,0.186576
1979,0.187334
1977,0.188038
1975,0.188872
1973,0.189486
1971,0.190341
1969,0.190907
1967,0.191551
1965,0.192381
1963,0.193029
1961,0.19382
1959,0.194536
1957,0.195067
1955,0.195883
1953,0.196593
1951,0.19729
1949,0.197983
1947,0.198632
1945,0.19949
1943,0.200019
1941,0.200738
1939,0.201551
1937,0.201971
1935,0.202885
1933,0.203618
1931,0.204334
1929,0.205032
1927,0.205696
1925,0.206189
1923,0.207237
1921,0.207921
1919,0.20882
1917,0.209285
1915,0.209796
1913,0.21088
1911,0.211712
1909,0.212196
1907,0.212566
1905,0.213885
1903,0.214466
1901,0.214743
1899,0.215931
1897,0.216609
1895,0.216963
1893,0.217927
1891,0.218508
1889,0.219392
1887,0.219875
1885,0.220386
1883,0.221221
1881,0.221756
1879,0.222128
1877,0.222594
1875,0.223167
1873,0.224137
1871,0.22441
1869,0.224762
1867,0.226064
1865,0.22587
1863,0.226504
1861,0.22671
1859,0.22748
1857,0.227523
1855,0.227627
1853,0.228603
1851,0.228342
1849,0.228183
1847,0.229375
1845,0.229106
1843,0.228984
1841,0.229691
1839,0.229633
1837,0.229663
1835,0.229843
1833,0.229552
1831,0.229734
1829,0.229689
1827,0.22928
1825,0.229405
1823,0.229117
1821,0.228986
1819,0.228889
1817,0.228404
1815,0.228332
1813,0.227936
1811,0.2276
1809,0.227258
1807,0.226794
1805,0.226429
1803,0.225883
1801,0.225604
1799,0.225075
1797,0.224514
1795,0.224032
1793,0.223646
1791,0.222959
1789,0.222549
1787,0.221864
1785,0.221298
1783,0.220641
1781,0.220176
1779,0.219417
1777,0.218826
1775,0.218135
1773,0.217638
1771,0.21701
1769,0.216292
1767,0.215682
1765,0.21493
1763,0.214254
1761,0.213638
1759,0.212928
1757,0.212418
1755,0.211679
1753,0.211025
1751,0.210289
1749,0.209642
1747,0.209012
1745,0.208309
1743,0.207609
1741,0.206896
1739,0.206256
1737,0.205632
1735,0.204933
1733,0.204073
1731,0.203473
1729,0.202769
1727,0.202016
1725,0.201228
1723,0.200564
1721,0.199883
1719,0.199047
1717,0.198221
1715,0.197577
1713,0.196758
1711,0.195917
1709,0.195146
1707,0.194406
1705,0.193523
1703,0.192664
1701,0.191946
1699,0.191137
1697,0.190264
1695,0.189466
1693,0.1886
1691,0.187869
1689,0.186944
1687,0.18614
1685,0.185292
1683,0.184385
1681,0.183642
1679,0.182731
1677,0.181863
1675,0.181077
1673,0.180311
1671,0.179545
1669,0.178717
1667,0.177884
1665,0.17713
1663,0.176135
1661,0.175434
1659,0.174562
1657,0.173836
1655,0.173044
1653,0.172197
1651,0.171419
1649,0.17063
1647,0.169821
1645,0.169052
1643,0.168225
1641,0.167444
1639,0.166626
1637,0.165885
1635,0.165154
1633,0.164308
1631,0.163515
1629,0.162826
1627,0.16207
1625,0.161433
1623,0.160682
1621,0.159939
1619,0.159233
1617,0.15852
1615,0.15784
1613,0.157109
1611,0.156463
1609,0.15588
1607,0.155254
1605,0.154647
1603,0.154073
1601,0.153424
1599,0.152903
1597,0.152378
1595,0.151788
1593,0.151272
1591,0.150786
1589,0.150303
1587,0.149772
1585,0.149443
1583,0.148872
1581,0.148532
1579,0.148071
1577,0.147603
1575,0.147258
1573,0.146872
1571,0.146481
1569,0.146173
1567,0.145747
1565,0.145448
1563,0.145112
1561,0.144791
1559,0.144504
1557,0.144176
1555,0.14388
1553,0.143572
1551,0.143278
1549,0.14306
1547,0.142798
1545,0.142528
1543,0.142262
1541,0.141988
1539,0.141835
1537,0.141543
1535,0.141371
1533,0.141214
1531,0.140926
1529,0.140752
1527,0.14059
1525,0.140339
1523,0.140213
1521,0.140087
1519,0.13985
1517,0.139763
1515,0.139565
1513,0.139421
1511,0.139264
1509,0.139149
1507,0.139027
1505,0.138868
1503,0.138797
1501,0.138611
1499,0.138501
1497,0.138428
1495,0.138244
1493,0.138264
1491,0.13808
1489,0.137961
1487,0.13795
1485,0.137824
1483,0.137768
1481,0.137675
1479,0.137605
1477,0.137508
1475,0.137462
1473,0.137358
1471,0.137267
1469,0.137236
1467,0.137176
1465,0.137083
1463,0.13707
1461,0.136936
1459,0.136937
1457,0.136855
1455,0.136804
1453,0.136689
1451,0.136668
1449,0.136575
1447,0.136541
1445,0.136541
1443,0.13648
1441,0.136409
1439,0.136311
1437,0.136314
1435,0.136217
1433,0.136198
1431,0.136195
1429,0.136081
1427,0.136051
1425,0.135947
1423,0.135964
1421,0.135864
1419,0.135821
1417,0.135765
1415,0.135788
1413,0.135711
1411,0.135579
1409,0.135675
1407,0.135565
1405,0.135627
1403,0.135462
1401,0.135427
1399,0.135485
1397,0.135334
1395,0.135523
1393,0.135346
1391,0.135398
1389,0.135321
1387,0.135276
1385,0.135214
1383,0.135257
1381,0.135332
1379,0.135043
1377,0.135021
1375,0.134902
1373,0.134761
1371,0.134942
1369,0.134786
1367,0.134741
1365,0.134744
1363,0.13464
1361,0.134704
1359,0.134615
1357,0.13459
1355,0.134567
1353,0.134581
1351,0.13455
1349,0.134483
1347,0.134507
1345,0.134481
1343,0.134421
1341,0.134498
1339,0.134498
1337,0.134511
1335,0.134501
1333,0.134489
1331,0.134515
1329,0.134585
1327,0.134575
1325,0.134615
1323,0.134587
1321,0.134674
1319,0.134681
1317,0.134715
1315,0.134796
1313,0.13483
1311,0.134906
1309,0.134995
1307,0.135038
1305,0.135078
1303,0.135173
1301,0.135284
1299,0.135368
1297,0.135414
1295,0.13559
1293,0.135637
1291,0.135745
1289,0.135943
1287,0.136003
1285,0.136146
1283,0.136338
1281,0.136469
1279,0.136586
1277,0.136781
1275,0.136936
1273,0.137126
1271,0.137363
1269,0.137536
1267,0.13774
1265,0.137977
1263,0.138202
1261,0.138421
1259,0.138666
1257,0.138895
1255,0.139189
1253,0.139448
1251,0.139758
1249,0.140022
1247,0.140317
1245,0.140621
1243,0.14097
1241,0.141283
1239,0.141573
1237,0.141947
1235,0.142208
1233,0.142627
1231,0.142976
1229,0.143392
1227,0.1438
1225,0.144135
1223,0.14456
1221,0.144953
1219,0.145443
1217,0.145856
1215,0.14636
1213,0.146847
1211,0.14734
1209,0.147829
1207,0.148366
1205,0.148876
1203,0.149407
1201,0.150008
1199,0.150369
1197,0.150956
1195,0.151554
1193,0.152158
1191,0.152735
1189,0.153405
1187,0.153967
1185,0.154621
1183,0.155259
1181,0.15587
1179,0.156574
1177,0.157216
1175,0.157816
1173,0.158521
1171,0.1591
1169,0.15979
1167,0.160479
1165,0.161077
1163,0.161766
1161,0.162449
1159,0.163114
1157,0.163824
1155,0.164495
1153,0.165214
1151,0.165964
1149,0.166698
1147,0.167483
1145,0.168255
1143,0.169134
1141,0.169988
1139,0.170885
1137,0.171815
1135,0.172798
1133,0.173819
1131,0.174872
1129,0.175883
1127,0.176988
1125,0.178079
1123,0.179214
1121,0.180337
1119,0.181504
1117,0.182619
1115,0.183747
1113,0.18488
1111,0.185979
1109,0.187049
1107,0.188148
1105,0.189081
1103,0.190028
1101,0.191
1099,0.191804
1097,0.192611
1095,0.1933
1093,0.193945
1091,0.194595
1089,0.195007
1087,0.195531
1085,0.195902
1083,0.196299
1081,0.196702
1079,0.19704
1077,0.197372
1075,0.197721
1073,0.198145
1071,0.198542
1069,0.198918
1067,0.199405
1065,0.19992
1063,0.200516
1061,0.201098
1059,0.201665
1057,0.202346
1055,0.203052
1053,0.203781
1051,0.204565
1049,0.205277
1047,0.206027
1045,0.20682
1043,0.207475
1041,0.208216
1039,0.208788
1037,0.209405
1035,0.209844
1033,0.210273
1031,0.21061
1029,0.210828
1027,0.211034
1025,0.211154
1023,0.211101
1021,0.211076
1019,0.210921
1017,0.210689
1015,0.210502
1013,0.21008
1011,0.2098
1009,0.209393
1007,0.208925
1005,0.208511
1003,0.207944
1001,0.207379
999,0.206884
997,0.206228
995,0.20557
993,0.2049
991,0.204184
989,0.203426
987,0.202673
985,0.201952
983,0.201176
981,0.200439
979,0.199713
977,0.198994
975,0.198315
973,0.197724
971,0.197012
969,0.196491
967,0.195862
965,0.195276
963,0.194802
961,0.19417
959,0.193633
957,0.193012
955,0.192399
953,0.191767
951,0.19113
949,0.190427
947,0.189686
945,0.189006
943,0.188285
941,0.187451
939,0.186745
937,0.185907
935,0.185205
933,0.184398
931,0.183646
929,0.182932
927,0.182017
925,0.18121
923,0.180358
921,0.179608
919,0.178819
917,0.177906
915,0.177077
913,0.176466
911,0.175568
909,0.17477
907,0.174172
905,0.173285
903,0.172691
901,0.171893
899,0.173293
897,0.173755
895,0.173791
893,0.169196
891,0.172897
889,0.172193
887,0.171739
885,0.166387
883,0.171454
881,0.168895
879,0.165767
877,0.169559
875,0.166389
873,0.168818
871,0.1692
869,0.164029
867,0.166382
865,0.165564
863,0.166674
861,0.166258
859,0.165872
857,0.165619
855,0.164108
853,0.164772
851,0.164368
849,0.164262
847,0.16436
845,0.164609
843,0.16406
841,0.164018
839,0.164423
837,0.16373
835,0.163881
833,0.164186
831,0.164213
829,0.164526
827,0.164818
825,0.164935
823,0.165517
821,0.165431
819,0.165553
817,0.166258
815,0.16615
813,0.166384
811,0.167384
809,0.168052
807,0.16784
805,0.168721
803,0.168831
801,0.169527
799,0.17004
797,0.170689
795,0.171108
793,0.17146
791,0.171993
789,0.172235
787,0.173185
785,0.173214
783,0.17374
781,0.17421
779,0.174718
777,0.175389
775,0.176226
773,0.176994
771,0.177653
769,0.178605
767,0.179723
765,0.180427
763,0.181524
761,0.18272
759,0.183527
757,0.184499
755,0.18584
753,0.186557
751,0.187472
749,0.188646
747,0.189187
745,0.189874
743,0.190157
741,0.190385
739,0.191124
737,0.191361
735,0.191386
733,0.191322
731,0.191549
729,0.191851
727,0.192007
725,0.1923372
723,0.192447
721,0.192884
719,0.192993
717,0.193235
715,0.193837
713,0.194133
711,0.194594
709,0.194739
707,0.195246
705,0.195427
703,0.195453
701,0.195509
699,0.195524
697,0.195223
695,0.195066
693,0.194821
691,0.194681
689,0.19415
687,0.193792
685,0.193798
683,0.193359
681,0.192878
679,0.192556
677,0.192211
675,0.191863
673,0.191433
671,0.190966
669,0.190808
667,0.190264
665,0.190006
663,0.18954
661,0.189259
659,0.189124
657,0.188859
655,0.188694
653,0.188515
651,0.188175
649,0.187933
647,0.187736
645,0.187534
643,0.187398
641,0.186829
639,0.186695
637,0.186303
635,0.186033
633,0.185938
631,0.185548
629,0.185384
627,0.185142
625,0.185053
623,0.184962
621,0.184843
619,0.184537
617,0.184693
615,0.18476
613,0.184681
611,0.184835
609,0.185102
607,0.185297
605,0.185558
603,0.186137
601,0.186691
599,0.187135
597,0.187465
595,0.187924
593,0.188563
591,0.189038
589,0.18936
587,0.189616
585,0.189931
583,0.190139
581,0.190131
579,0.190367
577,0.190663
575,0.191125
573,0.191502
571,0.192283
569,0.192992
567,0.194039
565,0.195045
563,0.19621
561,0.196991
559,0.197882
557,0.198431
555,0.198882
553,0.198988
551,0.198682
549,0.198759
547,0.198414
545,0.198099
543,0.197925
541,0.197867
539,0.197986
537,0.198449
535,0.199264
533,0.200002
531,0.200824
529,0.201544
527,0.202327
525,0.203054
523,0.203611
521,0.203809
519,0.204001
517,0.20405
515,0.204217
513,0.20418
511,0.204695
509,0.205082
507,0.205528
505,0.206347
503,0.207278
501,0.208271
499,0.209431
497,0.210502
495,0.211521
493,0.212109
491,0.212311
489,0.212103
487,0.211554
485,0.210648
483,0.210197
481,0.209739
479,0.209855
477,0.210124
475,0.210885
473,0.212187
471,0.213194
469,0.214051
467,0.214654
465,0.214935
463,0.214598
461,0.214131
459,0.213296
457,0.212917
455,0.212849
453,0.212677
451,0.213726
449,0.214239
447,0.215032
445,0.215899
443,0.217081
441,0.217783
439,0.218002
437,0.218371
435,0.219183
433,0.219791
431,0.220215
429,0.22084
427,0.222064
425,0.222641
423,0.223783
421,0.224486
419,0.225281
417,0.225168
415,0.225618
413,0.225927
411,0.226351
409,0.227217
407,0.228478
405,0.229761
403,0.231151
401,0.232452
399,0.233651
397,0.234317
395,0.23502
393,0.235495
391,0.236439
389,0.237075
387,0.238197
385,0.239192
383,0.240155
381,0.241834
379,0.243732
377,0.244727
375,0.246528
373,0.248691
371,0.250254
369,0.251488
367,0.252433
365,0.253895
363,0.254233
361,0.2558
359,0.257236
357,0.259544
355,0.262413
353,0.264208
351,0.266437
349,0.266523
347,0.267565
345,0.269355
343,0.270733
341,0.273431
339,0.275309
337,0.277743
335,0.280975
333,0.28284
331,0.284897
329,0.286767
327,0.289734
325,0.292193
323,0.29497
321,0.299948
319,0.302411
317,0.3056
315,0.309685
313,0.313429
311,0.317233
309,0.321496
307,0.326176
305,0.331334
303,0.335638
301,0.340432
299,0.344929
297,0.35022
295,0.35488
293,0.360683
291,0.365943
289,0.371516
287,0.376873
285,0.381876
283,0.3866
281,0.390755
279,0.394331
277,0.398119
275,0.400533
273,0.40211
271,0.403059
269,0.402551
267,0.402485
265,0.400939
263,0.399398
261,0.396574
259,0.394341
257,0.390994
255,0.387718
253,0.383132
251,0.378049
249,0.372214
247,0.36531
245,0.35825
243,0.350158
241,0.342585
239,0.335657
237,0.329634
235,0.323163
233,0.318375
231,0.314717
229,0.311995
227,0.310595
225,0.312575
223,0.320127
221,0.334423
219,0.358074
217,0.392198
215,0.433645
213,0.478337
211,0.520089
209,0.553994
207,0.57706
205,0.584368
203,0.58092
201,0.567172
200,0.558188