File: AbsorptionAnalysis/Absorption_Test_BackgroundSubstractions/DodecaneCryostatFilm/Dodecane_KIT_Vac_1200.txt
Dodecane_KIT_Vac_1200
Wavelength (nm),Abs
2655,0.0766928
2653,0.0781439
2651,0.0779928
2649,0.0779134
2647,0.0774462
2645,0.0805043
2643,0.0775808
2641,0.0784319
2639,0.0786059
2637,0.0792567
2635,0.0764505
2633,0.0791112
2631,0.0734197
2629,0.0787051
2627,0.0798259
2625,0.0786573
2623,0.0794641
2621,0.0742837
2619,0.0794835
2617,0.0754635
2615,0.07934
2613,0.0794301
2611,0.0781274
2609,0.0795868
2607,0.0799523
2605,0.0784972
2603,0.0781202
2601,0.078476
2599,0.0782593
2597,0.0754521
2595,0.0780526
2593,0.080064
2591,0.078935
2589,0.0775381
2587,0.0821507
2585,0.0768278
2583,0.0807393
2581,0.0791669
2579,0.0792903
2577,0.0822152
2575,0.0796905
2573,0.0811733
2571,0.0797579
2569,0.0795317
2567,0.0800718
2565,0.079465
2563,0.0781655
2561,0.0804421
2559,0.0808501
2557,0.0803713
2555,0.0805417
2553,0.0797825
2551,0.0805317
2549,0.0806456
2547,0.0804129
2545,0.0808401
2543,0.0806592
2541,0.0807225
2539,0.0812211
2537,0.0800268
2535,0.0807665
2533,0.0804798
2531,0.0805946
2529,0.0812229
2527,0.0812983
2525,0.0813064
2523,0.0815997
2521,0.0820346
2519,0.0817157
2517,0.0812541
2515,0.0816509
2513,0.0817756
2511,0.0815111
2509,0.0817323
2507,0.0817216
2505,0.0816076
2503,0.0821804
2501,0.0821765
2499,0.0820526
2497,0.0823728
2495,0.0821314
2493,0.0823972
2491,0.0824363
2489,0.0824137
2487,0.0825847
2485,0.0827617
2483,0.0827099
2481,0.082651
2479,0.0828113
2477,0.0829911
2475,0.0828871
2473,0.0829756
2471,0.0832822
2469,0.0829305
2467,0.083587
2465,0.0831274
2463,0.0834018
2461,0.0836553
2459,0.0834875
2457,0.0836568
2455,0.0838814
2453,0.0836759
2451,0.0840606
2449,0.0839574
2447,0.0841666
2445,0.084342
2443,0.0840886
2441,0.084318
2439,0.0844183
2437,0.0844154
2435,0.0848756
2433,0.0846333
2431,0.0846988
2429,0.0849713
2427,0.0849405
2425,0.0853381
2423,0.0852445
2421,0.0849933
2419,0.08535292
2417,0.0855517
2415,0.0854287
2413,0.0857757
2411,0.0857034
2409,0.0857237
2407,0.0861757
2405,0.0860795
2403,0.0861165
2401,0.0864023
2399,0.0863162
2397,0.0864761
2395,0.0868798
2393,0.0866625
2391,0.0869085
2389,0.087292
2387,0.0869542
2385,0.0873881
2383,0.0875114
2381,0.0875027
2379,0.0879058
2377,0.0876882
2375,0.0880151
2373,0.0882778
2371,0.0882365
2369,0.0884951
2367,0.0884676
2365,0.0889453
2363,0.0888516
2361,0.0891681
2359,0.0893077
2357,0.0893454
2355,0.0897793
2353,0.0897424
2351,0.0900103
2349,0.0901991
2347,0.090414
2345,0.0904292
2343,0.0906571
2341,0.090993
2339,0.0909116
2337,0.0913632
2335,0.0913752
2333,0.0915615
2331,0.0917781
2329,0.0921202
2327,0.092249
2325,0.0920939
2323,0.0928061
2321,0.0928168
2319,0.0930728
2317,0.0932063
2315,0.093767
2313,0.0935903
2311,0.0939502
2309,0.0941659
2307,0.094389
2305,0.0945555
2303,0.0949725
2301,0.0950655
2299,0.0953111
2297,0.0954879
2295,0.0958208
2293,0.0960084
2291,0.0963988
2289,0.0969294
2287,0.0968719
2285,0.0969715
2283,0.0974533
2281,0.0977133
2279,0.0976286
2277,0.0977931
2275,0.0984701
2273,0.0986854
2271,0.0989289
2269,0.0990862
2267,0.0998997
2265,0.0999359
2263,0.100125
2261,0.1002324
2259,0.101018
2257,0.101215
2255,0.101335
2253,0.101578
2251,0.102013
2249,0.102371
2247,0.102658
2245,0.103213
2243,0.103318
2241,0.10354
2239,0.103974
2237,0.104453
2235,0.104908
2233,0.105086
2231,0.105586
2229,0.105645
2227,0.106144
2225,0.106459
2223,0.106886
2221,0.10747
2219,0.107718
2217,0.108072
2215,0.108504
2213,0.108954
2211,0.10968
2209,0.109674
2207,0.110272
2205,0.110877
2203,0.11117
2201,0.111632
2199,0.111674
2197,0.112276
2195,0.112673
2193,0.1128
2191,0.113244
2189,0.113903
2187,0.113891
2185,0.114791
2183,0.115003
2181,0.115111
2179,0.115832
2177,0.116497
2175,0.116691
2173,0.117413
2171,0.117719
2169,0.118106
2167,0.118692
2165,0.119238
2163,0.119399
2161,0.119977
2159,0.120665
2157,0.121123
2155,0.121667
2153,0.122181
2151,0.122518
2149,0.123063
2147,0.123479
2145,0.124049
2143,0.124456
2141,0.12522
2139,0.125723
2137,0.126003
2135,0.126765
2133,0.12717
2131,0.12772
2129,0.128126
2127,0.128928
2125,0.129429
2123,0.130045
2121,0.13059
2119,0.131103
2117,0.131882
2115,0.132261
2113,0.132958
2111,0.133608
2109,0.134046
2107,0.134941
2105,0.135452
2103,0.135948
2101,0.136893
2099,0.137513
2097,0.138057
2095,0.13861
2093,0.139406
2091,0.140148
2089,0.140817
2087,0.14161
2085,0.142068
2083,0.143002
2081,0.143725
2079,0.144362
2077,0.144996
2075,0.145646
2073,0.146488
2071,0.147359
2069,0.147964
2067,0.148815
2065,0.149521
2063,0.150168
2061,0.151124
2059,0.151801
2057,0.152527
2055,0.153434
2053,0.154221
2051,0.154938
2049,0.155617
2047,0.156437
2045,0.157373
2043,0.158097
2041,0.159155
2039,0.159834
2037,0.160657
2035,0.161391
2033,0.162185
2031,0.163179
2029,0.163884
2027,0.164601
2025,0.16541
2023,0.166171
2021,0.167162
2019,0.167977
2017,0.168655
2015,0.169527
2013,0.170321
2011,0.171172
2009,0.171868
2007,0.172611
2005,0.173509
2003,0.174224
2001,0.175127
1999,0.175944
1997,0.176911
1995,0.177506
1993,0.178486
1991,0.179045
1989,0.179957
1987,0.180632
1985,0.181248
1983,0.182148
1981,0.182824
1979,0.183606
1977,0.184343
1975,0.18513
1973,0.185798
1971,0.186557
1969,0.187222
1967,0.18769
1965,0.188734
1963,0.189336
1961,0.190191
1959,0.190762
1957,0.19134
1955,0.1921
1953,0.192805
1951,0.19352
1949,0.194271
1947,0.194867
1945,0.195694
1943,0.196239
1941,0.196964
1939,0.197754
1937,0.198486
1935,0.199015
1933,0.199891
1931,0.200505
1929,0.201412
1927,0.202052
1925,0.202508
1923,0.203533
1921,0.203908
1919,0.205133
1917,0.205544
1915,0.206367
1913,0.207086
1911,0.207857
1909,0.2087
1907,0.208897
1905,0.210381
1903,0.210909
1901,0.211209
1899,0.212478
1897,0.213143
1895,0.213553
1893,0.214412
1891,0.214964
1889,0.215785
1887,0.216357
1885,0.216935
1883,0.217775
1881,0.218374
1879,0.21872
1877,0.219524
1875,0.219884
1873,0.220583
1871,0.22121
1869,0.221624
1867,0.222574
1865,0.222493
1863,0.223195
1861,0.223191
1859,0.224148
1857,0.224388
1855,0.224485
1853,0.225402
1851,0.225119
1849,0.225253
1847,0.226142
1845,0.225879
1843,0.225704
1841,0.226356
1839,0.226343
1837,0.226395
1835,0.226642
1833,0.22636
1831,0.226284
1829,0.226476
1827,0.226233
1825,0.226233
1823,0.226061
1821,0.226047
1819,0.225753
1817,0.225315
1815,0.225102
1813,0.224673
1811,0.224521
1809,0.224131
1807,0.223799
1805,0.223418
1803,0.222899
1801,0.222487
1799,0.221945
1797,0.221583
1795,0.220937
1793,0.220536
1791,0.220046
1789,0.21948
1787,0.218925
1785,0.218329
1783,0.21768
1781,0.217165
1779,0.216592
1777,0.216008
1775,0.21526
1773,0.214627
1771,0.214093
1769,0.213383
1767,0.212811
1765,0.212103
1763,0.211415
1761,0.210773
1759,0.210196
1757,0.209546
1755,0.208932
1753,0.20816
1751,0.207489
1749,0.206756
1747,0.206191
1745,0.205536
1743,0.204805
1741,0.204185
1739,0.203487
1737,0.202851
1735,0.202121
1733,0.201323
1731,0.200697
1729,0.199997
1727,0.19924
1725,0.19851
1723,0.197807
1721,0.197114
1719,0.196334
1717,0.19552
1715,0.19475
1713,0.193934
1711,0.193222
1709,0.192411
1707,0.191666
1705,0.190785
1703,0.189916
1701,0.189253
1699,0.188325
1697,0.187501
1695,0.186682
1693,0.185891
1691,0.185029
1689,0.184191
1687,0.183401
1685,0.182519
1683,0.181683
1681,0.180891
1679,0.179933
1677,0.179213
1675,0.178336
1673,0.177505
1671,0.176739
1669,0.175979
1667,0.175154
1665,0.174335
1663,0.173493
1661,0.172678
1659,0.171866
1657,0.171066
1655,0.170236
1653,0.169466
1651,0.168727
1649,0.167781
1647,0.167078
1645,0.166304
1643,0.165477
1641,0.16474
1639,0.163923
1637,0.163128
1635,0.162423
1633,0.161485
1631,0.160822
1629,0.160051
1627,0.159257
1625,0.158676
1623,0.157782
1621,0.15714
1619,0.156415
1617,0.155654
1615,0.155022
1613,0.154267
1611,0.153713
1609,0.153042
1607,0.152343
1605,0.151755
1603,0.151115
1601,0.15056
1599,0.149937
1597,0.149405
1595,0.148897
1593,0.148325
1591,0.147787
1589,0.147376
1587,0.146767
1585,0.146397
1583,0.145871
1581,0.14554
1579,0.14508
1577,0.144602
1575,0.144234
1573,0.143854
1571,0.143418
1569,0.143075
1567,0.14273
1565,0.142395
1563,0.14205
1561,0.141724
1559,0.14142
1557,0.141104
1555,0.140759
1553,0.140517
1551,0.140182
1549,0.139938
1547,0.139679
1545,0.139459
1543,0.139154
1541,0.138893
1539,0.13873
1537,0.138429
1535,0.138269
1533,0.13808
1531,0.137833
1529,0.137645
1527,0.137456
1525,0.137272
1523,0.137111
1521,0.136951
1519,0.136754
1517,0.136597
1515,0.136432
1513,0.136356
1511,0.136129
1509,0.13605
1507,0.135864
1505,0.135746
1503,0.135677
1501,0.135511
1499,0.135395
1497,0.135315
1495,0.135158
1493,0.135076
1491,0.134971
1489,0.134845
1487,0.134808
1485,0.13464
1483,0.134626
1481,0.134496
1479,0.134469
1477,0.13439
1475,0.134256
1473,0.134251
1471,0.134131
1469,0.134052
1467,0.13405
1465,0.133924
1463,0.13388
1461,0.133764
1459,0.133756
1457,0.13369
1455,0.133645
1453,0.133507
1451,0.133506
1449,0.133471
1447,0.133387
1445,0.133337
1443,0.13329
1441,0.133243
1439,0.133129
1437,0.133181
1435,0.133072
1433,0.132987
1431,0.133029
1429,0.132883
1427,0.132915
1425,0.132818
1423,0.132768
1421,0.132735
1419,0.132687
1417,0.132654
1415,0.132634
1413,0.132562
1411,0.132427
1409,0.132419
1407,0.132378
1405,0.13232
1403,0.132298
1401,0.132347
1399,0.132281
1397,0.132155
1395,0.132265
1393,0.132131
1391,0.132109
1389,0.13196
1387,0.131954
1385,0.131894
1383,0.131991
1381,0.132027
1379,0.131883
1377,0.131902
1375,0.131787
1373,0.131581
1371,0.131669
1369,0.131559
1367,0.131563
1365,0.131453
1363,0.13136
1361,0.131594
1359,0.131375
1357,0.131306
1355,0.131274
1353,0.131333
1351,0.131312
1349,0.13127
1347,0.131245
1345,0.131267
1343,0.131189
1341,0.131216
1339,0.131227
1337,0.131238
1335,0.131277
1333,0.13125
1331,0.131283
1329,0.131324
1327,0.131307
1325,0.131346
1323,0.131356
1321,0.131426
1319,0.131446
1317,0.131449
1315,0.131513
1313,0.131584
1311,0.131661
1309,0.131701
1307,0.131728
1305,0.131844
1303,0.131925
1301,0.132009
1299,0.132048
1297,0.132172
1295,0.132313
1293,0.132333
1291,0.132458
1289,0.132672
1287,0.132692
1285,0.132853
1283,0.133007
1281,0.133154
1279,0.133278
1277,0.13342
1275,0.133581
1273,0.133789
1271,0.134001
1269,0.13417
1267,0.13438
1265,0.134558
1263,0.134826
1261,0.135035
1259,0.135302
1257,0.135524
1255,0.135815
1253,0.13606
1251,0.136318
1249,0.136653
1247,0.136918
1245,0.137205
1243,0.137541
1241,0.137845
1239,0.138166
1237,0.138525
1235,0.138796
1233,0.139207
1231,0.139527
1229,0.139932
1227,0.14037
1225,0.140667
1223,0.14111
1221,0.141519
1219,0.141903
1217,0.142415
1215,0.142899
1213,0.143326
1211,0.143822
1209,0.144337
1207,0.144882
1205,0.145349
1203,0.145904
1201,0.146476
1199,0.146877
1197,0.147402
1195,0.148026
1193,0.148653
1191,0.149176
1189,0.149835
1187,0.150434
1185,0.151049
1183,0.151709
1181,0.152286
1179,0.152985
1177,0.153658
1175,0.154261
1173,0.154903
1171,0.15555
1169,0.156213
1167,0.156882
1165,0.157473
1163,0.158165
1161,0.158796
1159,0.159459
1157,0.160177
1155,0.160807
1153,0.161551
1151,0.162232
1149,0.162958
1147,0.16378
1145,0.164535
1143,0.165423
1141,0.166263
1139,0.167155
1137,0.168103
1135,0.169046
1133,0.17009
1131,0.1711
1129,0.172146
1127,0.173206
1125,0.174367
1123,0.175452
1121,0.176611
1119,0.177778
1117,0.17886
1115,0.180016
1113,0.18118
1111,0.182268
1109,0.183367
1107,0.184439
1105,0.185384
1103,0.186371
1101,0.187294
1099,0.188142
1097,0.188976
1095,0.189628
1093,0.19027
1091,0.190888
1089,0.191349
1087,0.191879
1085,0.192218
1083,0.192596
1081,0.192997
1079,0.193297
1077,0.193643
1075,0.193948
1073,0.19433
1071,0.194732
1069,0.195091
1067,0.195558
1065,0.196061
1063,0.19661
1061,0.197162
1059,0.197787
1057,0.198456
1055,0.199154
1053,0.199922
1051,0.200691
1049,0.201435
1047,0.202248
1045,0.202961
1043,0.203693
1041,0.20441
1039,0.204966
1037,0.20563
1035,0.206116
1033,0.206553
1031,0.206952
1029,0.207159
1027,0.207348
1025,0.207528
1023,0.207468
1021,0.207421
1019,0.207312
1017,0.207076
1015,0.206821
1013,0.20649
1011,0.206219
1009,0.205749
1007,0.205348
1005,0.204909
1003,0.204354
1001,0.203862
999,0.203306
997,0.202766
995,0.202094
993,0.201426
991,0.200703
989,0.200017
987,0.19926
985,0.198502
983,0.1977835
981,0.197007
979,0.196318
977,0.195558
975,0.19491
973,0.194308
971,0.193596
969,0.193031
967,0.192433
965,0.191825
963,0.191336
961,0.190677
959,0.190162
957,0.189557
955,0.189093
953,0.188383
951,0.187766
949,0.187035
947,0.186337
945,0.185688
943,0.184835
941,0.184022
939,0.18343
937,0.182527
935,0.181867
933,0.181119
931,0.180393
929,0.179625
927,0.178823
925,0.177988
923,0.177322
921,0.176402
919,0.175611
917,0.174788
915,0.174048
913,0.173178
911,0.172402
909,0.171638
907,0.170983
905,0.170126
903,0.16948
901,0.168679
899,0.165662
897,0.167265
895,0.167398
893,0.16328
891,0.164091
889,0.167763
887,0.167534
885,0.165461
883,0.172481
881,0.164236
879,0.164797
877,0.167298
875,0.16406
873,0.16562
871,0.166191
869,0.161139
867,0.16091
865,0.160266
863,0.161127
861,0.160614
859,0.161515
857,0.161889
855,0.159451
853,0.160321
851,0.159606
849,0.15943
847,0.160448
845,0.159459
843,0.16038
841,0.159674
839,0.158931
837,0.159021
835,0.158623
833,0.159188
831,0.159002
829,0.159784
827,0.159403
825,0.159936
823,0.160336
821,0.160781
819,0.160827
817,0.161554
815,0.161752
813,0.161682
811,0.162658
809,0.163098
807,0.163419
805,0.163784
803,0.164274
801,0.164801
799,0.165333
797,0.166192
795,0.166431
793,0.166449
791,0.167361
789,0.16783
787,0.168577
785,0.16863
783,0.168918
781,0.169415
779,0.170005
777,0.170907
775,0.171272
773,0.171918
771,0.172921
769,0.173814
767,0.175044
765,0.17566
763,0.176736
761,0.177809
759,0.178782
757,0.179962
755,0.181154
753,0.181708
751,0.182853
749,0.183794
747,0.184408
745,0.185077
743,0.185544
741,0.186003
739,0.186319
737,0.186509
735,0.186735
733,0.186613
731,0.187004
729,0.187238
727,0.187187
725,0.187563
723,0.187511
721,0.188067
719,0.188314
717,0.188419
715,0.18887
713,0.189242
711,0.189752
709,0.190319
707,0.190234
705,0.190595
703,0.190621
701,0.190891
699,0.190755
697,0.19062
695,0.190364
693,0.190307
691,0.18997
689,0.189646
687,0.189287
685,0.189078
683,0.188531
681,0.188202
679,0.187964
677,0.187537
675,0.187252
673,0.1869
671,0.186517
669,0.185988
667,0.185556
665,0.185236
663,0.185009
661,0.184732
659,0.184299
657,0.18412
655,0.183958
653,0.183867
651,0.183479
649,0.183187
647,0.183051
645,0.182783
643,0.182528
641,0.182021
639,0.181812
637,0.181594
635,0.181216
633,0.180943
631,0.180772
629,0.180645
627,0.180415
625,0.180211
623,0.179948
621,0.179963
619,0.179784
617,0.17971
615,0.179716
613,0.179973
611,0.179985
609,0.180272
607,0.180331
605,0.180618
603,0.181254
601,0.181922
599,0.182264
597,0.182676
595,0.183096
593,0.183804
591,0.184067
589,0.184508
587,0.184822
585,0.184974
583,0.185108
581,0.185269
579,0.1853
577,0.18569
575,0.186003
573,0.186858
571,0.187238
569,0.187823
567,0.189114
565,0.19019
563,0.191129
561,0.192012
559,0.192806
557,0.193649
555,0.193899
553,0.194221
551,0.194007
549,0.194032
547,0.19356
545,0.193117
543,0.193023
541,0.19292
539,0.193002
537,0.193424
535,0.194249
533,0.194895
531,0.195888
529,0.196592
527,0.197217
525,0.198192
523,0.198554
521,0.198774
519,0.199272
517,0.199147
515,0.199447
513,0.199296
511,0.199682
509,0.200203
507,0.200694
505,0.201333
503,0.202296
501,0.203201
499,0.204574
497,0.205843
495,0.206719
493,0.207445
491,0.207597
489,0.207502
487,0.207064
485,0.206111
483,0.205573
481,0.205291
479,0.205035
477,0.205645
475,0.206431
473,0.207324
471,0.208702
469,0.209809
467,0.210436
465,0.210763
463,0.210492
461,0.2096
459,0.209018
457,0.208389
455,0.208166
453,0.208274
451,0.208824
449,0.209592
447,0.210378
445,0.211206
443,0.212311
441,0.212814
439,0.213507
437,0.213912
435,0.214382
433,0.214941
431,0.215656
429,0.21605
427,0.217396
425,0.218175
423,0.219074
421,0.220026
419,0.220729
417,0.220534
415,0.22091
413,0.221346
411,0.221778
409,0.222897
407,0.223569
405,0.224951
403,0.226615
401,0.227893
399,0.229325
397,0.229727
395,0.230276
393,0.230924
391,0.231443
389,0.232367
387,0.233187
385,0.234442
383,0.236011
381,0.237449
379,0.238655
377,0.240307
375,0.241926
373,0.243819
371,0.245559
369,0.246938
367,0.247605
365,0.248483
363,0.249287
361,0.250957
359,0.252416
357,0.255167
355,0.257843
353,0.259298
351,0.261824
349,0.261622
347,0.263302
345,0.265211
343,0.266237
341,0.267892
339,0.270285
337,0.273161
335,0.275626
333,0.277491
331,0.279431
329,0.28162
327,0.284254
325,0.287258
323,0.289986
321,0.294243
319,0.296871
317,0.30084
315,0.303505
313,0.308197
311,0.311927
309,0.315886
307,0.320235
305,0.32565
303,0.329936
301,0.334232
299,0.339296
297,0.343807
295,0.349414
293,0.354652
291,0.359973
289,0.366038
287,0.370836
285,0.376007
283,0.379934
281,0.384631
279,0.388601
277,0.392136
275,0.394435
273,0.396593
271,0.396744
269,0.396803
267,0.396517
265,0.395587
263,0.393784
261,0.391362
259,0.388477
257,0.385029
255,0.38192
253,0.377392
251,0.372415
249,0.367458
247,0.360749
245,0.353009
243,0.344642
241,0.337599
239,0.330235
237,0.323734
235,0.317615
233,0.312406
231,0.308542
229,0.305049
227,0.302847
225,0.303669
223,0.309489
221,0.322211
219,0.345045
217,0.378798
215,0.421388
213,0.467775
211,0.512038
209,0.54952
207,0.573434
205,0.581435
203,0.57789
201,0.562559
200,0.551896