File: AbsorptionAnalysis/Absorption_Test_BackgroundSubstractions/DodecaneCryostatFilm/Dodecane_KIT_Temp_50.txt
Dodecane_KIT_Temp_50
Wavelength (nm),Abs
2655,0.077809
2653,0.0774461
2651,0.0778014
2649,0.0780602
2647,0.0786233
2645,0.0818547
2643,0.07921
2641,0.0787579
2639,0.0792466
2637,0.0800956
2635,0.0770228
2633,0.0790158
2631,0.0741696
2629,0.0802677
2627,0.0801172
2625,0.079797
2623,0.0792242
2621,0.0761339
2619,0.0816768
2617,0.0771664
2615,0.079451
2613,0.0810065
2611,0.0787498
2609,0.0802398
2607,0.079946
2605,0.079065
2603,0.0782081
2601,0.0796899
2599,0.0792288
2597,0.077187
2595,0.0793993
2593,0.0802763
2591,0.07994
2589,0.0778188
2587,0.0828265
2585,0.0762648
2583,0.0809154
2581,0.0799598
2579,0.0799445
2577,0.0823925
2575,0.0812175
2573,0.081806
2571,0.0805502
2569,0.0813756
2567,0.0808856
2565,0.081627
2563,0.0778015
2561,0.0816698
2559,0.081615
2557,0.081222
2555,0.0813097
2553,0.0809619
2551,0.0810091
2549,0.0810832
2547,0.0816082
2545,0.0817412
2543,0.080837
2541,0.0819636
2539,0.0820324
2537,0.0812484
2535,0.0814343
2533,0.0809569
2531,0.0815369
2529,0.0822099
2527,0.0821132
2525,0.0827048
2523,0.0826012
2521,0.082619
2519,0.0825358
2517,0.0825329
2515,0.0827042
2513,0.0825773
2511,0.0826822
2509,0.0824526
2507,0.0826052
2505,0.0824266
2503,0.0831162
2501,0.0828885
2499,0.0827601
2497,0.0832666
2495,0.0831993
2493,0.0832261
2491,0.083352
2489,0.0832734
2487,0.0835166
2485,0.0834316
2483,0.0837083
2481,0.0834874
2479,0.0836094
2477,0.0838732
2475,0.0837945
2473,0.0837564
2471,0.0841332
2469,0.0837345
2467,0.0843903
2465,0.0841006
2463,0.0844175
2461,0.0844731
2459,0.0844713
2457,0.0845685
2455,0.0847941
2453,0.0845419
2451,0.084846
2449,0.0847689
2447,0.0848171
2445,0.0852617
2443,0.085039
2441,0.0851338
2439,0.0854442
2437,0.0851661
2435,0.0857793
2433,0.0855234
2431,0.0856398
2429,0.0858549
2427,0.0857736
2425,0.0861233
2423,0.0860562
2421,0.0858685
2419,0.0861769
2417,0.0864358
2415,0.0862996
2413,0.0865171
2411,0.0866291
2409,0.0866707
2407,0.0870933
2405,0.086962
2403,0.0870711
2401,0.0872638
2399,0.0872549
2397,0.0873795
2395,0.0876648
2393,0.08763
2391,0.0878177
2389,0.0881376
2387,0.0879593
2385,0.0882795
2383,0.0884217
2381,0.0884624
2379,0.0887949
2377,0.0886385
2375,0.0890102
2373,0.0892464
2371,0.0891478
2369,0.0894341
2367,0.0894936
2365,0.0898228
2363,0.0897015
2361,0.0900662
2359,0.090206
2357,0.0903621
2355,0.0906712
2353,0.090666
2351,0.090979
2349,0.0911048
2347,0.0912911
2345,0.0913625
2343,0.0916533
2341,0.0919415
2339,0.0917814
2337,0.0922508
2335,0.0922173
2333,0.092606
2331,0.0926284
2329,0.0930009
2327,0.0931451
2325,0.0931823
2323,0.0937562
2321,0.0937218
2319,0.0938641
2317,0.0940814
2315,0.0946047
2313,0.0944668
2311,0.0948502
2309,0.0951073
2307,0.0954231
2305,0.0955527
2303,0.0959192
2301,0.0961604
2299,0.0961698
2297,0.0963233
2295,0.0967456
2293,0.0970269
2291,0.0972042
2289,0.0977689
2287,0.0977301
2285,0.0979149
2283,0.0985377
2281,0.0984809
2279,0.0986348
2277,0.0987798
2275,0.0994838
2273,0.0994378
2271,0.100064
2269,0.100292
2267,0.10076
2265,0.100819
2263,0.100961
2261,0.101232
2259,0.102204
2257,0.102197
2255,0.102019
2253,0.102759
2251,0.102934
2249,0.103259
2247,0.103414
2245,0.104144
2243,0.104036
2241,0.104514
2239,0.104701
2237,0.105134
2235,0.1058
2233,0.105512
2231,0.106438
2229,0.106547
2227,0.107065
2225,0.107405
2223,0.107748
2221,0.108389
2219,0.108497
2217,0.108986
2215,0.109337
2213,0.110046
2211,0.110567
2209,0.110519
2207,0.111283
2205,0.111792
2203,0.1118
2201,0.112484
2199,0.112478
2197,0.11296
2195,0.113667
2193,0.113791
2191,0.114229
2189,0.114814
2187,0.115033
2185,0.115604
2183,0.115898
2181,0.116059
2179,0.116832
2177,0.117375
2175,0.117654
2173,0.118403
2171,0.118675
2169,0.11896
2167,0.119689
2165,0.120243
2163,0.120288
2161,0.121177
2159,0.121472
2157,0.121985
2155,0.122392
2153,0.122966
2151,0.12342
2149,0.123996
2147,0.124509
2145,0.124993
2143,0.125408
2141,0.126064
2139,0.126394
2137,0.12705
2135,0.127636
2133,0.128237
2131,0.128643
2129,0.129318
2127,0.129829
2125,0.13047
2123,0.13092
2121,0.131508
2119,0.132184
2117,0.132824
2115,0.133386
2113,0.133907
2111,0.134618
2109,0.135185
2107,0.135868
2105,0.13631
2103,0.136931
2101,0.137904
2099,0.138437
2097,0.139102
2095,0.139739
2093,0.140309
2091,0.141178
2089,0.141781
2087,0.142551
2085,0.143112
2083,0.143952
2081,0.144615
2079,0.14528
2077,0.145926
2075,0.146851
2073,0.147545
2071,0.148306
2069,0.149155
2067,0.149825
2065,0.150645
2063,0.151303
2061,0.152146
2059,0.152843
2057,0.153601
2055,0.154405
2053,0.155278
2051,0.155971
2049,0.156693
2047,0.157356
2045,0.158344
2043,0.159193
2041,0.160045
2039,0.160829
2037,0.161686
2035,0.162429
2033,0.163253
2031,0.164191
2029,0.164929
2027,0.165687
2025,0.166473
2023,0.167236
2021,0.168128
2019,0.16901
2017,0.169685
2015,0.170642
2013,0.17151
2011,0.172275
2009,0.173044
2007,0.17377
2005,0.174616
2003,0.175437
2001,0.176177
1999,0.177104
1997,0.177816
1995,0.178642
1993,0.179491
1991,0.180271
1989,0.180989
1987,0.181769
1985,0.182339
1983,0.183104
1981,0.183936
1979,0.184763
1977,0.185333
1975,0.186145
1973,0.186817
1971,0.187733
1969,0.188373
1967,0.189052
1965,0.189757
1963,0.190489
1961,0.191158
1959,0.191832
1957,0.192542
1955,0.193227
1953,0.193865
1951,0.194721
1949,0.195422
1947,0.195989
1945,0.196792
1943,0.197481
1941,0.19807
1939,0.198966
1937,0.199532
1935,0.200262
1933,0.201073
1931,0.201716
1929,0.202422
1927,0.203109
1925,0.203674
1923,0.204652
1921,0.2049658
1919,0.206289
1917,0.206672
1915,0.207427
1913,0.208348
1911,0.209088
1909,0.209687
1907,0.210108
1905,0.211564
1903,0.212042
1901,0.21235
1899,0.213586
1897,0.214323
1895,0.214562
1893,0.2155
1891,0.21619
1889,0.216872
1887,0.217463
1885,0.218121
1883,0.218853
1881,0.219404
1879,0.21992
1877,0.220571
1875,0.22094
1873,0.221687
1871,0.222335
1869,0.222579
1867,0.223787
1865,0.223615
1863,0.224278
1861,0.224258
1859,0.225299
1857,0.225379
1855,0.225534
1853,0.226443
1851,0.22624
1849,0.226346
1847,0.227249
1845,0.226903
1843,0.226777
1841,0.227479
1839,0.227369
1837,0.227504
1835,0.227832
1833,0.227384
1831,0.227446
1829,0.227551
1827,0.22716
1825,0.227318
1823,0.227054
1821,0.22703
1819,0.226719
1817,0.226335
1815,0.226174
1813,0.225843
1811,0.225556
1809,0.225169
1807,0.224853
1805,0.224397
1803,0.223929
1801,0.223528
1799,0.223074
1797,0.222577
1795,0.222078
1793,0.221555
1791,0.221053
1789,0.220584
1787,0.220012
1785,0.219331
1783,0.218649
1781,0.218167
1779,0.21757
1777,0.216944
1775,0.21632
1773,0.215642
1771,0.215062
1769,0.214411
1767,0.213745
1765,0.213098
1763,0.212407
1761,0.211726
1759,0.211135
1757,0.210477
1755,0.209845
1753,0.209214
1751,0.208473
1749,0.207744
1747,0.207226
1745,0.206532
1743,0.205679
1741,0.205045
1739,0.204428
1737,0.203788
1735,0.203065
1733,0.202288
1731,0.201662
1729,0.200848
1727,0.20016
1725,0.199344
1723,0.198617
1721,0.197935
1719,0.197217
1717,0.196449
1715,0.195626
1713,0.194845
1711,0.194095
1709,0.193282
1707,0.192529
1705,0.191589
1703,0.190775
1701,0.190127
1699,0.189234
1697,0.188366
1695,0.18758
1693,0.186805
1691,0.185893
1689,0.185051
1687,0.184301
1685,0.183337
1683,0.182559
1681,0.181732
1679,0.180781
1677,0.180048
1675,0.179201
1673,0.178397
1671,0.177638
1669,0.176817
1667,0.175977
1665,0.175217
1663,0.174289
1661,0.173559
1659,0.172731
1657,0.171927
1655,0.171168
1653,0.170351
1651,0.169548
1649,0.168673
1647,0.167947
1645,0.167129
1643,0.166358
1641,0.165622
1639,0.164755
1637,0.163991
1635,0.163325
1633,0.162437
1631,0.161635
1629,0.160908
1627,0.160181
1625,0.159542
1623,0.158683
1621,0.157985
1619,0.157281
1617,0.156544
1615,0.15592
1613,0.1552
1611,0.154538
1609,0.153887
1607,0.153314
1605,0.152619
1603,0.152007
1601,0.151428
1599,0.150915
1597,0.15028
1595,0.149764
1593,0.149262
1591,0.148655
1589,0.148238
1587,0.147669
1585,0.14724
1583,0.146812
1581,0.146396
1579,0.145962
1577,0.145486
1575,0.145112
1573,0.14476
1571,0.144345
1569,0.144025
1567,0.14365
1565,0.143278
1563,0.142937
1561,0.142626
1559,0.142323
1557,0.141979
1555,0.141688
1553,0.141432
1551,0.141065
1549,0.140889
1547,0.140591
1545,0.140347
1543,0.140131
1541,0.139776
1539,0.139615
1537,0.139353
1535,0.139191
1533,0.139034
1531,0.138709
1529,0.13858
1527,0.138353
1525,0.138175
1523,0.138021
1521,0.137885
1519,0.137673
1517,0.137525
1515,0.137355
1513,0.137248
1511,0.137063
1509,0.136993
1507,0.136813
1505,0.136703
1503,0.136619
1501,0.136407
1499,0.136324
1497,0.136251
1495,0.13608
1493,0.136052
1491,0.135918
1489,0.135785
1487,0.13571
1485,0.135595
1483,0.135567
1481,0.13548
1479,0.135447
1477,0.135336
1475,0.135209
1473,0.135198
1471,0.135038
1469,0.135036
1467,0.13498
1465,0.134869
1463,0.134833
1461,0.134762
1459,0.134711
1457,0.134666
1455,0.134566
1453,0.134484
1451,0.134505
1449,0.134426
1447,0.134318
1445,0.134322
1443,0.134232
1441,0.13422
1439,0.134128
1437,0.134125
1435,0.134033
1433,0.134004
1431,0.134014
1429,0.133851
1427,0.133861
1425,0.133783
1423,0.133774
1421,0.133678
1419,0.133642
1417,0.133632
1415,0.133598
1413,0.133548
1411,0.133402
1409,0.133432
1407,0.133402
1405,0.133387
1403,0.13329
1401,0.133338
1399,0.133255
1397,0.133163
1395,0.133271
1393,0.13309
1391,0.133065
1389,0.132944
1387,0.132955
1385,0.132866
1383,0.132992
1381,0.133015
1379,0.132822
1377,0.132934
1375,0.132781
1373,0.132611
1371,0.132654
1369,0.132526
1367,0.132565
1365,0.13241
1363,0.132354
1361,0.13254
1359,0.132406
1357,0.132347
1355,0.132254
1353,0.132348
1351,0.132318
1349,0.132291
1347,0.132292
1345,0.132281
1343,0.132219
1341,0.132246
1339,0.132249
1337,0.132268
1335,0.132262
1333,0.132275
1331,0.132265
1329,0.132338
1327,0.132344
1325,0.132354
1323,0.132363
1321,0.132433
1319,0.132477
1317,0.132507
1315,0.132535
1313,0.1326
1311,0.132677
1309,0.132723
1307,0.132788
1305,0.132879
1303,0.13294
1301,0.13306
1299,0.13309
1297,0.133154
1295,0.133312
1293,0.133345
1291,0.133462
1289,0.133675
1287,0.133743
1285,0.133882
1283,0.134029
1281,0.1342
1279,0.134295
1277,0.134479
1275,0.134615
1273,0.134824
1271,0.13505
1269,0.135228
1267,0.135456
1265,0.135619
1263,0.135867
1261,0.136092
1259,0.136321
1257,0.136587
1255,0.136881
1253,0.137089
1251,0.137427
1249,0.137664
1247,0.137962
1245,0.138304
1243,0.138589
1241,0.138855
1239,0.139231
1237,0.139567
1235,0.13985
1233,0.1403
1231,0.140605
1229,0.140968
1227,0.141409
1225,0.141745
1223,0.142131
1221,0.142603
1219,0.142967
1217,0.143459
1215,0.143919
1213,0.144401
1211,0.144923
1209,0.145393
1207,0.145913
1205,0.146429
1203,0.146932
1201,0.147531
1199,0.147934
1197,0.148493
1195,0.14908
1193,0.149704
1191,0.150259
1189,0.150881
1187,0.151527
1185,0.152136
1183,0.152781
1181,0.15341
1179,0.154103
1177,0.1547
1175,0.155347
1173,0.156032
1171,0.156627
1169,0.157338
1167,0.157957
1165,0.158567
1163,0.159291
1161,0.159906
1159,0.16057
1157,0.16126
1155,0.161884
1153,0.162644
1151,0.163355
1149,0.164041
1147,0.164888
1145,0.165633
1143,0.1665
1141,0.167373
1139,0.168264
1137,0.169157
1135,0.170144
1133,0.171164
1131,0.172173
1129,0.173238
1127,0.174316
1125,0.175438
1123,0.176582
1121,0.177684
1119,0.178878
1117,0.180009
1115,0.181114
1113,0.182286
1111,0.18338
1109,0.184445
1107,0.185535
1105,0.186496
1103,0.187476
1101,0.188425
1099,0.189255
1097,0.190064
1095,0.190759
1093,0.191391
1091,0.191999
1089,0.192483
1087,0.192954
1085,0.193333
1083,0.193737
1081,0.194119
1079,0.194416
1077,0.194711
1075,0.19503
1073,0.195468
1071,0.195839
1069,0.196232
1067,0.1967
1065,0.197199
1063,0.197693
1061,0.198297
1059,0.198886
1057,0.199588
1055,0.2003
1053,0.200972
1051,0.201766
1049,0.202564
1047,0.203339
1045,0.204067
1043,0.204827
1041,0.205551
1039,0.20608
1037,0.206776
1035,0.2072
1033,0.207654
1031,0.208032
1029,0.20828
1027,0.20847
1025,0.208679
1023,0.208565
1021,0.208568
1019,0.208409
1017,0.208193
1015,0.20795
1013,0.207575
1011,0.207281
1009,0.206854
1007,0.206442
1005,0.206027
1003,0.205518
1001,0.204933
999,0.204394
997,0.203811
995,0.203185
993,0.202547
991,0.201816
989,0.201042
987,0.200379
985,0.199651
983,0.198864
981,0.198138
979,0.197469
977,0.196656
975,0.196036
973,0.195444
971,0.194703
969,0.194153
967,0.1935
965,0.192904
963,0.192393
961,0.191791
959,0.191322
957,0.190609
955,0.190092
953,0.189526
951,0.188866
949,0.188165
947,0.187401
945,0.186836
943,0.185886
941,0.185196
939,0.184503
937,0.183778
935,0.182871
933,0.182176
931,0.181502
929,0.180762
927,0.179908
925,0.179102
923,0.178328
921,0.177454
919,0.176689
917,0.175754
915,0.174995
913,0.174368
911,0.173479
909,0.172706
907,0.172075
905,0.171099
903,0.170598
901,0.169984
899,0.172907
897,0.170568
895,0.171235
893,0.16707
891,0.16747
889,0.169366
887,0.167385
885,0.166081
883,0.16622
881,0.167942
879,0.165174
877,0.166449
875,0.161115
873,0.166048
871,0.165847
869,0.163462
867,0.162177
865,0.163109
863,0.162205
861,0.162645
859,0.162203
857,0.163841
855,0.160693
853,0.161583
851,0.162238
849,0.161934
847,0.16063
845,0.161628
843,0.16116
841,0.160592
839,0.160618
837,0.160345
835,0.160454
833,0.16068
831,0.160645
829,0.161745
827,0.160959
825,0.161614
823,0.16183
821,0.161996
819,0.162627
817,0.16351
815,0.163316
813,0.163384
811,0.164031
809,0.164691
807,0.165034
805,0.165264
803,0.16573
801,0.16618
799,0.166622
797,0.16736
795,0.167839
793,0.168168
791,0.16902
789,0.169408
787,0.16987
785,0.17002
783,0.170459
781,0.17122
779,0.171484
777,0.172244
775,0.172615
773,0.173447
771,0.174326
769,0.175466
767,0.176469
765,0.177135
763,0.178289
761,0.1789646
759,0.180399
757,0.18106
755,0.182413
753,0.183167
751,0.184254
749,0.185272
747,0.185853
745,0.186637
743,0.187117
741,0.187363
739,0.187823
737,0.187849
735,0.188237
733,0.187962
731,0.18825
729,0.188514
727,0.188441
725,0.188973
723,0.188858
721,0.189375
719,0.189613
717,0.189826
715,0.190335
713,0.190734
711,0.191023
709,0.191631
707,0.191736
705,0.191796
703,0.192125
701,0.192196
699,0.192137
697,0.191972
695,0.191878
693,0.191684
691,0.191311
689,0.190907
687,0.190706
685,0.19039
683,0.189958
681,0.189467
679,0.189415
677,0.188782
675,0.188672
673,0.188176
671,0.187864
669,0.187425
667,0.18696
665,0.186622
663,0.186324
661,0.185994
659,0.185633
657,0.185489
655,0.185317
653,0.185097
651,0.184863
649,0.184576
647,0.184319
645,0.184261
643,0.183991
641,0.183494
639,0.183397
637,0.183056
635,0.182636
633,0.182465
631,0.182244
629,0.18198
627,0.181807
625,0.181544
623,0.181515
621,0.181604
619,0.18121
617,0.181252
615,0.181539
613,0.181207
611,0.181423
609,0.181655
607,0.181766
605,0.182136
603,0.18262
601,0.183275
599,0.183701
597,0.184053
595,0.184617
593,0.185224
591,0.185493
589,0.185896
587,0.186137
585,0.186518
583,0.186675
581,0.1868
579,0.186861
577,0.187168
575,0.187454
573,0.188138
571,0.188673
569,0.189374
567,0.190422
565,0.191565
563,0.192518
561,0.193384
559,0.194188
557,0.195103
555,0.195561
553,0.195748
551,0.195468
549,0.195447
547,0.195143
545,0.194701
543,0.194467
541,0.194191
539,0.194394
537,0.194905
535,0.195696
533,0.196439
531,0.197419
529,0.198042
527,0.198837
525,0.199504
523,0.200018
521,0.20038
519,0.200778
517,0.200645
515,0.200774
513,0.200835
511,0.201215
509,0.201496
507,0.202066
505,0.202838
503,0.203793
501,0.204613
499,0.20594
497,0.207128
495,0.208228
493,0.208833
491,0.209103
489,0.208676
487,0.20833
485,0.20763
483,0.207114
481,0.206574
479,0.206474
477,0.207048
475,0.207823
473,0.208776
471,0.21017
469,0.211094
467,0.211932
465,0.212061
463,0.211766
461,0.211171
459,0.210424
457,0.209827
455,0.209614
453,0.209591
451,0.210209
449,0.210888
447,0.211526
445,0.212538
443,0.213726
441,0.214527
439,0.214876
437,0.215383
435,0.215433
433,0.216392
431,0.217067
429,0.217324
427,0.218697
425,0.219509
423,0.220682
421,0.221165
419,0.221901
417,0.221993
415,0.222295
413,0.222627
411,0.223256
409,0.224092
407,0.225204
405,0.226714
403,0.228077
401,0.229053
399,0.230626
397,0.231224
395,0.231578
393,0.232244
391,0.232711
389,0.23397
387,0.234585
385,0.235787
383,0.23705
381,0.238786
379,0.240177
377,0.241536
375,0.24331
373,0.245416
371,0.246895
369,0.248172
367,0.249107
365,0.250638
363,0.250827
361,0.252104
359,0.253974
357,0.255972
355,0.258877
353,0.260536
351,0.263517
349,0.26234
347,0.263573
345,0.265806
343,0.267408
341,0.269071
339,0.271937
337,0.273211
335,0.277287
333,0.278578
331,0.281209
329,0.283303
327,0.285756
325,0.28813
323,0.291236
321,0.295474
319,0.298356
317,0.302263
315,0.305166
313,0.309865
311,0.313412
309,0.316667
307,0.321997
305,0.326538
303,0.331238
301,0.336048
299,0.340444
297,0.345512
295,0.350856
293,0.356486
291,0.361385
289,0.367245
287,0.372199
285,0.377571
283,0.382113
281,0.386174
279,0.389988
277,0.393911
275,0.395909
273,0.3976
271,0.398797
269,0.398362
267,0.397789
265,0.396559
263,0.394989
261,0.39255
259,0.390271
257,0.386727
255,0.383805
253,0.379239
251,0.374089
249,0.36867
247,0.361693
245,0.354452
243,0.34604
241,0.338971
239,0.331598
237,0.325087
235,0.318596
233,0.314027
231,0.309739
229,0.306481
227,0.304415
225,0.305222
223,0.311456
221,0.324499
219,0.347373
217,0.380371
215,0.422966
213,0.469277
211,0.513922
209,0.551103
207,0.574719
205,0.583115
203,0.579585
201,0.565292
200,0.554698