File: AbsorptionAnalysis/Absorption_Test_BackgroundSubstractions/DodecaneCryostatFilm/Dodecane_KIT_HotWater_A.txt
Dodecane_KIT_HotWater_A
Wavelength (nm),Abs
2655,0.078731
2653,0.0791289
2651,0.0792611
2649,0.0798721
2647,0.0800304
2645,0.082306
2643,0.0799771
2641,0.0801409
2639,0.0804035
2637,0.0811174
2635,0.0786452
2633,0.0804915
2631,0.0762498
2629,0.0807808
2627,0.0803254
2625,0.0804622
2623,0.0801802
2621,0.0767855
2619,0.0823587
2617,0.0776746
2615,0.0809423
2613,0.0817086
2611,0.0797708
2609,0.0816862
2607,0.0821962
2605,0.0797346
2603,0.0787215
2601,0.0806576
2599,0.0801312
2597,0.0784441
2595,0.0799892
2593,0.0826594
2591,0.0797131
2589,0.0788446
2587,0.0830893
2585,0.078046
2583,0.0820411
2581,0.0808567
2579,0.0811526
2577,0.0825778
2575,0.0816707
2573,0.0817842
2571,0.0811296
2569,0.0807267
2567,0.0814097
2565,0.081856
2563,0.0785348
2561,0.081342
2559,0.08177
2557,0.0817819
2555,0.0812464
2553,0.0809369
2551,0.0820581
2549,0.0815577
2547,0.0820328
2545,0.081728
2543,0.0811966
2541,0.0818134
2539,0.0822326
2537,0.0813977
2535,0.0819461
2533,0.0812722
2531,0.0817216
2529,0.0821695
2527,0.0824241
2525,0.0819766
2523,0.0824059
2521,0.0828159
2519,0.0824335
2517,0.0824562
2515,0.0825759
2513,0.0827531
2511,0.0826612
2509,0.082543
2507,0.0826014
2505,0.0826171
2503,0.083022
2501,0.0830694
2499,0.0828724
2497,0.0833688
2495,0.0832333
2493,0.0833785
2491,0.0834632
2489,0.0832339
2487,0.0837253
2485,0.0834391
2483,0.0834345
2481,0.0837323
2479,0.0835597
2477,0.0838845
2475,0.0837745
2473,0.083775
2471,0.0839698
2469,0.0838127
2467,0.0844885
2465,0.0840062
2463,0.0843128
2461,0.0844638
2459,0.0844957
2457,0.0844389
2455,0.084613
2453,0.0845993
2451,0.0848595
2449,0.0846699
2447,0.0847864
2445,0.0852433
2443,0.0849985
2441,0.0851989
2439,0.0852599
2437,0.0852363
2435,0.085546
2433,0.0853691
2431,0.0856517
2429,0.0858225
2427,0.0858665
2425,0.0860517
2423,0.0861356
2421,0.0860124
2419,0.0862676
2417,0.0864503
2415,0.0862964
2413,0.0865958
2411,0.0866029
2409,0.0866974
2407,0.087136
2405,0.0869378
2403,0.0870435
2401,0.0874155
2399,0.0872854
2397,0.0874793
2395,0.0877806
2393,0.0876043
2391,0.0879087
2389,0.0881188
2387,0.087963
2385,0.0882963
2383,0.0883237
2381,0.0885209
2379,0.0887605
2377,0.0887808
2375,0.089152
2373,0.0891529
2371,0.0891967
2369,0.0893425
2367,0.0894307
2365,0.0898046
2363,0.0897055
2361,0.0900783
2359,0.0901345
2357,0.0903934
2355,0.0906124
2353,0.0906455
2351,0.0909703
2349,0.0909991
2347,0.0914434
2345,0.0913969
2343,0.0917566
2341,0.0918759
2339,0.0919176
2337,0.0923915
2335,0.092283
2333,0.0927525
2331,0.09259
2329,0.0930926
2327,0.0932043
2325,0.0932528
2323,0.0936669
2321,0.0938405
2319,0.0939644
2317,0.0940447
2315,0.0945889
2313,0.0945785
2311,0.0949168
2309,0.0951159
2307,0.0955409
2305,0.0955781
2303,0.0959382
2301,0.0959537
2299,0.0962043
2297,0.0962177
2295,0.0969653
2293,0.0967799
2291,0.0973003
2289,0.0975555
2287,0.0976472
2285,0.0977514
2283,0.0985707
2281,0.0985814
2279,0.0987268
2277,0.0984556
2275,0.09949
2273,0.0995717
2271,0.100047
2269,0.100227
2267,0.10093
2265,0.100902
2263,0.100903
2261,0.10148
2259,0.102085
2257,0.102212
2255,0.101953
2253,0.102764
2251,0.102852
2249,0.103265
2247,0.10347
2245,0.10401
2243,0.10439
2241,0.104327
2239,0.104981
2237,0.105226
2235,0.105732
2233,0.105869
2231,0.106661
2229,0.106553
2227,0.107139
2225,0.107522
2223,0.107734
2221,0.108585
2219,0.108501
2217,0.108907
2215,0.109396
2213,0.109734
2211,0.110605
2209,0.11053
2207,0.111223
2205,0.111771
2203,0.111896
2201,0.112509
2199,0.112662
2197,0.112908
2195,0.113525
2193,0.113793
2191,0.114097
2189,0.114897
2187,0.115011
2185,0.115477
2183,0.116034
2181,0.116165
2179,0.116793
2177,0.117307
2175,0.117625
2173,0.11838
2171,0.118799
2169,0.118998
2167,0.11967
2165,0.120257
2163,0.120457
2161,0.121106
2159,0.121626
2157,0.122189
2155,0.122673
2153,0.123015
2151,0.123546
2149,0.124017
2147,0.124591
2145,0.125022
2143,0.125389
2141,0.126111
2139,0.126594
2137,0.127169
2135,0.127775
2133,0.128155
2131,0.128764
2129,0.129211
2127,0.129769
2125,0.130402
2123,0.130993
2121,0.131503
2119,0.132098
2117,0.132874
2115,0.133385
2113,0.134062
2111,0.134467
2109,0.135168
2107,0.136011
2105,0.13641
2103,0.137007
2101,0.137789
2099,0.13844
2097,0.13908
2095,0.13976
2093,0.140343
2091,0.141011
2089,0.141759
2087,0.14255
2085,0.143235
2083,0.143819
2081,0.144555
2079,0.145285
2077,0.145898
2075,0.146763
2073,0.147488
2071,0.148244
2069,0.148829
2067,0.149675
2065,0.150451
2063,0.151062
2061,0.151954
2059,0.152661
2057,0.153564
2055,0.15434
2053,0.155255
2051,0.155847
2049,0.156682
2047,0.15731
2045,0.158289
2043,0.159009
2041,0.159898
2039,0.160562
2037,0.161379
2035,0.162241
2033,0.162917
2031,0.163997
2029,0.164708
2027,0.165426
2025,0.166274
2023,0.167151
2021,0.167961
2019,0.168872
2017,0.169565
2015,0.170447
2013,0.171242
2011,0.171983
2009,0.172696
2007,0.173552
2005,0.174347
2003,0.175199
2001,0.175908
1999,0.176902
1997,0.177716
1995,0.178379
1993,0.179181
1991,0.179967
1989,0.180754
1987,0.181427
1985,0.182226
1983,0.182983
1981,0.183793
1979,0.184478
1977,0.185185
1975,0.185978
1973,0.186629
1971,0.187401
1969,0.188078
1967,0.188742
1965,0.189488
1963,0.190131
1961,0.190917
1959,0.191594
1957,0.19229
1955,0.192863
1953,0.193572
1951,0.194383
1949,0.195111
1947,0.195615
1945,0.196447
1943,0.197243
1941,0.197861
1939,0.19863
1937,0.199309
1935,0.199947
1933,0.200782
1931,0.201432
1929,0.202064
1927,0.202911
1925,0.203473
1923,0.204327
1921,0.204766
1919,0.205999
1917,0.206383
1915,0.207002
1913,0.207982
1911,0.208725
1909,0.209322
1907,0.209766
1905,0.211119
1903,0.21172
1901,0.211969
1899,0.213179
1897,0.21382
1895,0.214288
1893,0.215222
1891,0.215698
1889,0.216608
1887,0.217156
1885,0.21761
1883,0.218402
1881,0.219011
1879,0.219398
1877,0.220185
1875,0.220434
1873,0.221437
1871,0.221794
1869,0.222346
1867,0.223431
1865,0.223191
1863,0.22384
1861,0.223947
1859,0.224862
1857,0.225058
1855,0.225094
1853,0.226093
1851,0.225824
1849,0.225903
1847,0.226871
1845,0.226505
1843,0.226373
1841,0.22711
1839,0.227121
1837,0.227066
1835,0.227451
1833,0.226989
1831,0.227191
1829,0.22723
1827,0.22682
1825,0.226887
1823,0.226627
1821,0.226535
1819,0.226356
1817,0.225923
1815,0.225869
1813,0.225386
1811,0.225104
1809,0.22494
1807,0.224473
1805,0.22399
1803,0.223562
1801,0.223226
1799,0.222772
1797,0.222258
1795,0.221634
1793,0.221208
1791,0.220683
1789,0.220206
1787,0.219586
1785,0.219017
1783,0.218338
1781,0.217845
1779,0.217221
1777,0.216583
1775,0.215903
1773,0.215319
1771,0.214677
1769,0.214014
1767,0.213431
1765,0.212691
1763,0.21205
1761,0.211493
1759,0.210813
1757,0.210162
1755,0.209524
1753,0.208853
1751,0.208122
1749,0.207439
1747,0.20683
1745,0.206159
1743,0.205478
1741,0.204771
1739,0.204151
1737,0.203468
1735,0.202795
1733,0.201943
1731,0.201336
1729,0.20052
1727,0.199904
1725,0.199135
1723,0.198373
1721,0.197658
1719,0.196917
1717,0.196131
1715,0.195423
1713,0.194633
1711,0.193804
1709,0.19312
1707,0.192376
1705,0.19139
1703,0.190605
1701,0.189806
1699,0.18897
1697,0.188191
1695,0.187409
1693,0.186487
1691,0.185729
1689,0.184847
1687,0.183998
1685,0.183156
1683,0.182321
1681,0.181571
1679,0.180596
1677,0.179762
1675,0.179063
1673,0.178203
1671,0.177406
1669,0.176693
1667,0.175818
1665,0.174982
1663,0.174107
1661,0.173299
1659,0.17258
1657,0.171747
1655,0.170978
1653,0.17008
1651,0.16936
1649,0.168552
1647,0.167733
1645,0.166999
1643,0.166175
1641,0.165383
1639,0.164577
1637,0.163804
1635,0.163059
1633,0.162256
1631,0.161515
1629,0.160714
1627,0.160032
1625,0.159355
1623,0.158538
1621,0.157876
1619,0.157078
1617,0.156359
1615,0.155746
1613,0.155048
1611,0.154411
1609,0.153776
1607,0.153158
1605,0.152499
1603,0.151885
1601,0.151305
1599,0.150785
1597,0.150154
1595,0.149592
1593,0.149135
1591,0.148546
1589,0.148186
1587,0.14753
1585,0.147185
1583,0.146685
1581,0.146294
1579,0.145844
1577,0.14539
1575,0.14501
1573,0.144664
1571,0.144227
1569,0.143906
1567,0.143494
1565,0.143184
1563,0.142821
1561,0.142532
1559,0.142221
1557,0.141892
1555,0.141563
1553,0.141375
1551,0.141034
1549,0.140772
1547,0.140541
1545,0.140185
1543,0.139995
1541,0.139683
1539,0.139532
1537,0.139269
1535,0.139071
1533,0.138923
1531,0.138669
1529,0.138501
1527,0.138281
1525,0.138078
1523,0.137916
1521,0.137788
1519,0.137601
1517,0.137454
1515,0.137259
1513,0.137198
1511,0.136999
1509,0.136848
1507,0.136719
1505,0.136545
1503,0.136564
1501,0.13635
1499,0.136261
1497,0.136153
1495,0.135981
1493,0.135921
1491,0.135783
1489,0.135702
1487,0.135645
1485,0.135481
1483,0.135465
1481,0.135385
1479,0.135322
1477,0.135208
1475,0.135104
1473,0.135107
1471,0.135009
1469,0.134932
1467,0.134919
1465,0.134762
1463,0.134739
1461,0.134641
1459,0.134601
1457,0.134533
1455,0.134526
1453,0.134419
1451,0.13441
1449,0.134358
1447,0.134276
1445,0.134214
1443,0.134141
1441,0.134114
1439,0.134044
1437,0.134064
1435,0.133909
1433,0.133907
1431,0.133883
1429,0.133789
1427,0.133798
1425,0.133686
1423,0.133682
1421,0.133592
1419,0.133555
1417,0.133528
1415,0.133486
1413,0.133438
1411,0.133302
1409,0.13335
1407,0.133258
1405,0.133248
1403,0.133194
1401,0.133245
1399,0.133162
1397,0.133075
1395,0.133128
1393,0.132984
1391,0.133022
1389,0.132952
1387,0.132926
1385,0.132884
1383,0.132963
1381,0.1329
1379,0.132761
1377,0.132761
1375,0.132594
1373,0.132512
1371,0.132573
1369,0.132425
1367,0.132484
1365,0.132399
1363,0.132299
1361,0.132425
1359,0.13234
1357,0.132239
1355,0.132184
1353,0.132276
1351,0.132217
1349,0.132172
1347,0.132158
1345,0.132165
1343,0.132109
1341,0.132157
1339,0.132157
1337,0.132196
1335,0.132198
1333,0.132188
1331,0.132207
1329,0.132296
1327,0.13223
1325,0.132261
1323,0.132274
1321,0.1323
1319,0.132382
1317,0.132377
1315,0.132466
1313,0.132548
1311,0.132569
1309,0.132652
1307,0.132659
1305,0.13278
1303,0.132822
1301,0.132925
1299,0.13297
1297,0.13307
1295,0.133257
1293,0.133268
1291,0.133418
1289,0.133572
1287,0.133633
1285,0.133801
1283,0.133952
1281,0.134076
1279,0.134248
1277,0.134387
1275,0.134518
1273,0.134749
1271,0.134954
1269,0.135151
1267,0.135327
1265,0.135531
1263,0.135775
1261,0.135965
1259,0.136234
1257,0.136499
1255,0.13678
1253,0.137012
1251,0.13729
1249,0.137585
1247,0.137874
1245,0.138197
1243,0.138542
1241,0.138792
1239,0.139133
1237,0.139437
1235,0.139752
1233,0.140182
1231,0.140536
1229,0.140906
1227,0.141353
1225,0.141628
1223,0.142074
1221,0.142498
1219,0.142913
1217,0.143387
1215,0.143852
1213,0.144322
1211,0.144854
1209,0.145296
1207,0.145838
1205,0.146335
1203,0.146864
1201,0.147445
1199,0.147847
1197,0.148397
1195,0.149
1193,0.149631
1191,0.150172
1189,0.150812
1187,0.151415
1185,0.152022
1183,0.152701
1181,0.153298
1179,0.153968
1177,0.154606
1175,0.155262
1173,0.155911
1171,0.15656
1169,0.157219
1167,0.157887
1165,0.158471
1163,0.15919
1161,0.159809
1159,0.160485
1157,0.161182
1155,0.161832
1153,0.162559
1151,0.163288
1149,0.16399
1147,0.164792
1145,0.165548
1143,0.166449
1141,0.167312
1139,0.168135
1137,0.169072
1135,0.1701
1133,0.171083
1131,0.172145
1129,0.17315
1127,0.17425
1125,0.175395
1123,0.176498
1121,0.17761
1119,0.178834
1117,0.179921
1115,0.18101
1113,0.182236
1111,0.183293
1109,0.184367
1107,0.185461
1105,0.18639
1103,0.187377
1101,0.188351
1099,0.189137
1097,0.18995
1095,0.190675
1093,0.191276
1091,0.19189
1089,0.19236
1087,0.192875
1085,0.193255
1083,0.193641
1081,0.194021
1079,0.194329
1077,0.194646
1075,0.194957
1073,0.195356
1071,0.195754
1069,0.196149
1067,0.19659
1065,0.197076
1063,0.197687
1061,0.198259
1059,0.198819
1057,0.199529
1055,0.200229
1053,0.200974
1051,0.201773
1049,0.202504
1047,0.203311
1045,0.204023
1043,0.204747
1041,0.205467
1039,0.206054
1037,0.206661
1035,0.207148
1033,0.2076
1031,0.20796
1029,0.208207
1027,0.20835
1025,0.208557
1023,0.20853
1021,0.208449
1019,0.208299
1017,0.208096
1015,0.207864
1013,0.207515
1011,0.207205
1009,0.206791
1007,0.206358
1005,0.205934
1003,0.205329
1001,0.204813
999,0.20431
997,0.203674
995,0.203119
993,0.202433
991,0.201689
989,0.200972
987,0.20025
985,0.199477
983,0.198797
981,0.197944
979,0.197259
977,0.196522
975,0.195949
973,0.195266
971,0.194579
969,0.193977
967,0.19342
965,0.192813
963,0.192278
961,0.191719
959,0.191145
957,0.190524
955,0.189911
953,0.189352
951,0.188634
949,0.187992
947,0.1873
945,0.186673
943,0.185834
941,0.185038
939,0.184405
937,0.183606
935,0.182783
933,0.182091
931,0.181352
929,0.180517
927,0.179778
925,0.178894
923,0.178086
921,0.177375
919,0.176467
917,0.175661
915,0.17502
913,0.174051
911,0.173394
909,0.172481
907,0.171834
905,0.170853
903,0.170429
901,0.169533
899,0.170141
897,0.16916
895,0.169286
893,0.166085
891,0.160816
889,0.171666
887,0.170333
885,0.166597
883,0.166981
881,0.16541
879,0.166448
877,0.167091
875,0.162931
873,0.164803
871,0.164729
869,0.160608
867,0.16334
865,0.162957
863,0.161728
861,0.163135
859,0.162966
857,0.16282
855,0.161938
853,0.162452
851,0.161755
849,0.161677
847,0.162067
845,0.161425
843,0.161186
841,0.161502
839,0.161079
837,0.16073
835,0.161035
833,0.161629
831,0.160782
829,0.161822
827,0.161504
825,0.161878
823,0.162015
821,0.162329
819,0.162671
817,0.163162
815,0.163086
813,0.163153
811,0.164387
809,0.164602
807,0.165077
805,0.165527
803,0.166002
801,0.16635
799,0.166748
797,0.167902
795,0.168249
793,0.168235
791,0.168954
789,0.169324
787,0.169951
785,0.169982
783,0.170499
781,0.171008
779,0.171684
777,0.172508
775,0.172841
773,0.173674
771,0.174267
769,0.175299
767,0.176483
765,0.177244
763,0.178197
761,0.17914
759,0.180597
757,0.181611
755,0.182795
753,0.183455
751,0.184441
749,0.185431
747,0.1858
745,0.18632
743,0.187088
741,0.18745
739,0.187656
737,0.188039
735,0.188151
733,0.188267
731,0.18847
729,0.188586
727,0.18861
725,0.188877
723,0.189159
721,0.189458
719,0.189708
717,0.190091
715,0.190477
713,0.190797
711,0.191334
709,0.191497
707,0.191808
705,0.191924
703,0.19215
701,0.192355
699,0.192188
697,0.191928
695,0.19195
693,0.191884
691,0.191592
689,0.191172
687,0.190672
685,0.190585
683,0.190212
681,0.189795
679,0.189414
677,0.189068
675,0.18887
673,0.188395
671,0.187903
669,0.187556
667,0.18708
665,0.186728
663,0.186438
661,0.186159
659,0.185846
657,0.185668
655,0.185472
653,0.185295
651,0.185005
649,0.184823
647,0.184679
645,0.184348
643,0.184275
641,0.18367
639,0.183527
637,0.183273
635,0.182818
633,0.182611
631,0.182184
629,0.182118
627,0.182072
625,0.18178
623,0.181692
621,0.181557
619,0.18148
617,0.181536
615,0.181593
613,0.181413
611,0.181708
609,0.18183
607,0.181989
605,0.182183
603,0.1828
601,0.183492
599,0.183818
597,0.184305
595,0.184642
593,0.185338
591,0.18569
589,0.186082
587,0.186411
585,0.186656
583,0.186832
581,0.186852
579,0.187044
577,0.187249
575,0.187628
573,0.188284
571,0.188894
569,0.189573
567,0.190698
565,0.191824
563,0.19273
561,0.193581
559,0.194551
557,0.1952
555,0.195574
553,0.195792
551,0.195664
549,0.195539
547,0.195062
545,0.194748
543,0.194469
541,0.194378
539,0.194695
537,0.195061
535,0.195836
533,0.196467
531,0.197366
529,0.19808
527,0.198967
525,0.199722
523,0.199917
521,0.200519
519,0.20091
517,0.200659
515,0.200915
513,0.200848
511,0.201162
509,0.201773
507,0.202027
505,0.202711
503,0.20382
501,0.204687
499,0.206059
497,0.207216
495,0.208214
493,0.208826
491,0.209178
489,0.208942
487,0.20849
485,0.207429
483,0.20705
481,0.206675
479,0.206561
477,0.20714
475,0.207831
473,0.209018
471,0.210292
469,0.210869
467,0.212009
465,0.212041
463,0.211773
461,0.211251
459,0.210347
457,0.209888
455,0.209652
453,0.209851
451,0.210229
449,0.210921
447,0.211724
445,0.212686
443,0.213721
441,0.214435
439,0.214854
437,0.215237
435,0.215762
433,0.216207
431,0.216952
429,0.217537
427,0.218642
425,0.219348
423,0.22072
421,0.221352
419,0.221904
417,0.221919
415,0.222394
413,0.222683
411,0.223129
409,0.22416
407,0.225139
405,0.226223
403,0.228027
401,0.229181
399,0.230465
397,0.231482
395,0.231528
393,0.232128
391,0.232877
389,0.233816
387,0.234867
385,0.235595
383,0.237049
381,0.238645
379,0.240262
377,0.241968
375,0.243507
373,0.245354
371,0.246699
369,0.247968
367,0.249338
365,0.250393
363,0.250817
361,0.252555
359,0.254134
357,0.256379
355,0.258617
353,0.26075
351,0.263035
349,0.262571
347,0.264398
345,0.265724
343,0.267618
341,0.269583
339,0.271764
337,0.274077
335,0.277354
333,0.278647
331,0.28095
329,0.283495
327,0.285274
325,0.288348
323,0.291435
321,0.294968
319,0.298687
317,0.302624
315,0.305464
313,0.309614
311,0.313183
309,0.31705
307,0.322131
305,0.327168
303,0.331406
301,0.336282
299,0.340777
297,0.345954
295,0.350768
293,0.355877
291,0.361873
289,0.367432
287,0.372673
285,0.377261
283,0.382506
281,0.386384
279,0.389784
277,0.39392
275,0.396376
273,0.397596
271,0.3987
269,0.398419
267,0.397984
265,0.397216
263,0.395309
261,0.392716
259,0.390519
257,0.386718
255,0.383933
253,0.379087
251,0.374266
249,0.3686
247,0.361817
245,0.354602
243,0.346491
241,0.339034
239,0.331752
237,0.325387
235,0.319618
233,0.314213
231,0.30996
229,0.307025
227,0.305083
225,0.305924
223,0.312338
221,0.32518
219,0.348405
217,0.38189
215,0.424863
213,0.47085
211,0.515669
209,0.551238
207,0.574614
205,0.583546
203,0.578778
201,0.565023
200,0.554666