File: AbsorptionAnalysis/Absorption_Test_BackgroundSubstractions/DodecaneCryostatFilm/Dodecane_KIT_Vac_1300.txt
Dodecane_KIT_Vac_1300
Wavelength (nm),Abs
2655,0.0765291
2653,0.0792425
2651,0.0779572
2649,0.0783759
2647,0.0783796
2645,0.0804681
2643,0.0792323
2641,0.0787844
2639,0.0792973
2637,0.0788331
2635,0.0764548
2633,0.0787286
2631,0.0707044
2629,0.0789985
2627,0.0779038
2625,0.0792489
2623,0.0793677
2621,0.0752771
2619,0.0799236
2617,0.0773305
2615,0.0790958
2613,0.0802187
2611,0.0779485
2609,0.0792196
2607,0.0792609
2605,0.0776672
2603,0.0786583
2601,0.0792042
2599,0.0788026
2597,0.0768709
2595,0.0800324
2593,0.0799474
2591,0.0786497
2589,0.0775837
2587,0.0814399
2585,0.0762239
2583,0.0806035
2581,0.0795748
2579,0.0797561
2577,0.0817309
2575,0.0796883
2573,0.0816003
2571,0.079848
2569,0.0800332
2567,0.0803948
2565,0.0809831
2563,0.0781159
2561,0.0805671
2559,0.0812794
2557,0.0805542
2555,0.0811775
2553,0.0798831
2551,0.0801819
2549,0.0809293
2547,0.0814279
2545,0.0808241
2543,0.0808509
2541,0.0806738
2539,0.0809757
2537,0.0805847
2535,0.0810506
2533,0.0804592
2531,0.0810112
2529,0.0809894
2527,0.0814547
2525,0.0817243
2523,0.0820866
2521,0.0818626
2519,0.0818039
2517,0.0815814
2515,0.0818814
2513,0.0818052
2511,0.0819162
2509,0.0817088
2507,0.0821051
2505,0.0819049
2503,0.0823539
2501,0.0823261
2499,0.0824329
2497,0.0825571
2495,0.0824671
2493,0.0825982
2491,0.0826025
2489,0.0823147
2487,0.0830809
2485,0.0828052
2483,0.0830145
2481,0.0831077
2479,0.0829994
2477,0.0832706
2475,0.0831262
2473,0.0831347
2471,0.0835899
2469,0.0831555
2467,0.0837519
2465,0.083566
2463,0.0837074
2461,0.0839186
2459,0.083753
2457,0.0837636
2455,0.0841426
2453,0.0840595
2451,0.0843596
2449,0.0840657
2447,0.084388
2445,0.0845905
2443,0.0843981
2441,0.0845034
2439,0.0846824
2437,0.0845667
2435,0.0849972
2433,0.0848742
2431,0.084974
2429,0.085247
2427,0.0852267
2425,0.0854364
2423,0.0856023
2421,0.085436
2419,0.08573
2417,0.0858135
2415,0.0856222
2413,0.0859192
2411,0.0860202
2409,0.0860308
2407,0.0864448
2405,0.0862855
2403,0.0864316
2401,0.0867731
2399,0.0866849
2397,0.0867424
2395,0.0871645
2393,0.0870043
2391,0.087289
2389,0.0875286
2387,0.0873169
2385,0.0875485
2383,0.0877941
2381,0.0878311
2379,0.0881551
2377,0.0880304
2375,0.0883226
2373,0.0884257
2371,0.0885075
2369,0.0888209
2367,0.088847
2365,0.0891151
2363,0.0891405
2361,0.0894314
2359,0.0896158
2357,0.0897068
2355,0.0900627
2353,0.0900219
2351,0.0902759
2349,0.0904972
2347,0.0907212
2345,0.0908345
2343,0.0909809
2341,0.0912842
2339,0.091216
2337,0.0916177
2335,0.0916537
2333,0.0920074
2331,0.0920509
2329,0.092342
2327,0.0925654
2325,0.0925448
2323,0.0931727
2321,0.0931115
2319,0.0933605
2317,0.0934622
2315,0.0939445
2313,0.0939332
2311,0.0944031
2309,0.0945159
2307,0.0947157
2305,0.0948868
2303,0.0951347
2301,0.0954586
2299,0.0954823
2297,0.0957285
2295,0.0962595
2293,0.0963331
2291,0.096605
2289,0.0970303
2287,0.096993
2285,0.0973028
2283,0.0979466
2281,0.0979993
2279,0.0979105
2277,0.0981319
2275,0.0989612
2273,0.0989275
2271,0.0993314
2269,0.0994377
2267,0.100232
2265,0.100269
2263,0.100306
2261,0.100728
2259,0.101312
2257,0.101555
2255,0.101544
2253,0.102241
2251,0.102245
2249,0.102661
2247,0.102931
2245,0.103467
2243,0.103798
2241,0.103919
2239,0.104494
2237,0.104671
2235,0.105306
2233,0.105228
2231,0.10604
2229,0.106099
2227,0.106638
2225,0.106775
2223,0.10724
2221,0.107829
2219,0.107995
2217,0.108492
2215,0.10888
2213,0.109443
2211,0.110021
2209,0.110121
2207,0.110747
2205,0.11119
2203,0.111264
2201,0.112117
2199,0.111936
2197,0.112349
2195,0.113086
2193,0.113314
2191,0.113439
2189,0.114314
2187,0.114305
2185,0.115048
2183,0.115152
2181,0.115562
2179,0.116272
2177,0.116921
2175,0.116957
2173,0.117841
2171,0.117909
2169,0.118485
2167,0.119205
2165,0.119547
2163,0.119727
2161,0.120537
2159,0.120952
2157,0.121603
2155,0.121906
2153,0.122327
2151,0.122809
2149,0.123531
2147,0.123993
2145,0.124376
2143,0.124819
2141,0.125481
2139,0.126165
2137,0.126585
2135,0.127007
2133,0.127756
2131,0.128186
2129,0.128743
2127,0.129309
2125,0.129929
2123,0.130425
2121,0.131016
2119,0.131537
2117,0.13226
2115,0.13272
2113,0.133459
2111,0.134051
2109,0.134665
2107,0.13523
2105,0.135887
2103,0.136416
2101,0.137191
2099,0.137916
2097,0.138566
2095,0.13926
2093,0.139767
2091,0.140557
2089,0.141256
2087,0.141989
2085,0.142446
2083,0.143441
2081,0.144166
2079,0.144805
2077,0.145414
2075,0.146199
2073,0.147016
2071,0.147853
2069,0.148469
2067,0.14921
2065,0.150027
2063,0.150562
2061,0.151514
2059,0.152384
2057,0.153091
2055,0.153917
2053,0.154746
2051,0.15541
2049,0.156236
2047,0.156938
2045,0.157925
2043,0.158614
2041,0.159508
2039,0.160293
2037,0.160943
2035,0.161951
2033,0.16262
2031,0.163518
2029,0.164431
2027,0.165091
2025,0.166
2023,0.166778
2021,0.167587
2019,0.168621
2017,0.169384
2015,0.170187
2013,0.170912
2011,0.171644
2009,0.172445
2007,0.173316
2005,0.174125
2003,0.174844
2001,0.175714
1999,0.176524
1997,0.177432
1995,0.178148
1993,0.178898
1991,0.179597
1989,0.180394
1987,0.181236
1985,0.181859
1983,0.18263
1981,0.183564
1979,0.184287
1977,0.184901
1975,0.18569
1973,0.186325
1971,0.187079
1969,0.187772
1967,0.188482
1965,0.189281
1963,0.189865
1961,0.190744
1959,0.191379
1957,0.1921
1955,0.19272
1953,0.193333
1951,0.19408
1949,0.194897
1947,0.195446
1945,0.196236
1943,0.196994
1941,0.197513
1939,0.198343
1937,0.199138
1935,0.199751
1933,0.200439
1931,0.201173
1929,0.201982
1927,0.202771
1925,0.203162
1923,0.204194
1921,0.204577
1919,0.20583
1917,0.206183
1915,0.206851
1913,0.207944
1911,0.208563
1909,0.209219
1907,0.209513
1905,0.211144
1903,0.21158
1901,0.211902
1899,0.213231
1897,0.213776
1895,0.214157
1893,0.215226
1891,0.215542
1889,0.216487
1887,0.217001
1885,0.217537
1883,0.218393
1881,0.218955
1879,0.219388
1877,0.220215
1875,0.220441
1873,0.221206
1871,0.221852
1869,0.222082
1867,0.223347
1865,0.223187
1863,0.223787
1861,0.223922
1859,0.224707
1857,0.22514
1855,0.224985
1853,0.226011
1851,0.225808
1849,0.225664
1847,0.226843
1845,0.226432
1843,0.226247
1841,0.22709
1839,0.226959
1837,0.227121
1835,0.227332
1833,0.226861
1831,0.226955
1829,0.227169
1827,0.226736
1825,0.226802
1823,0.226586
1821,0.22668
1819,0.226334
1817,0.225873
1815,0.225856
1813,0.2253
1811,0.225111
1809,0.224747
1807,0.224394
1805,0.223932
1803,0.223488
1801,0.223138
1799,0.222639
1797,0.22212
1795,0.221606
1793,0.221148
1791,0.220651
1789,0.220185
1787,0.219504
1785,0.218884
1783,0.21825
1781,0.217825
1779,0.217189
1777,0.216509
1775,0.215922
1773,0.21517
1771,0.214648
1769,0.213987
1767,0.213365
1765,0.212601
1763,0.212001
1761,0.211288
1759,0.210683
1757,0.210054
1755,0.209323
1753,0.208766
1751,0.208031
1749,0.207298
1747,0.206712
1745,0.206105
1743,0.205161
1741,0.204646
1739,0.203976
1737,0.203276
1735,0.202561
1733,0.201765
1731,0.201217
1729,0.200431
1727,0.199623
1725,0.198914
1723,0.198205
1721,0.197506
1719,0.196658
1717,0.19594
1715,0.195207
1713,0.194437
1711,0.1936
1709,0.192816
1707,0.192152
1705,0.191221
1703,0.190334
1701,0.189569
1699,0.188839
1697,0.187918
1695,0.187105
1693,0.186212
1691,0.185422
1689,0.18458
1687,0.183743
1685,0.182866
1683,0.182144
1681,0.181268
1679,0.180299
1677,0.179503
1675,0.17868
1673,0.177881
1671,0.177135
1669,0.176288
1667,0.17543
1665,0.174713
1663,0.173826
1661,0.173025
1659,0.172213
1657,0.17144
1655,0.170632
1653,0.169795
1651,0.169007
1649,0.16818
1647,0.167372
1645,0.166649
1643,0.165807
1641,0.165012
1639,0.16427
1637,0.163455
1635,0.162666
1633,0.161939
1631,0.161109
1629,0.160351
1627,0.159685
1625,0.15894
1623,0.158111
1621,0.157431
1619,0.156675
1617,0.155999
1615,0.155353
1613,0.154558
1611,0.153997
1609,0.153352
1607,0.152675
1605,0.152064
1603,0.151425
1601,0.150881
1599,0.150255
1597,0.149705
1595,0.149178
1593,0.148688
1591,0.1481
1589,0.147651
1587,0.147084
1585,0.146671
1583,0.146161
1581,0.145802
1579,0.145351
1577,0.14489
1575,0.14454
1573,0.1441
1571,0.14376
1569,0.143432
1567,0.142998
1565,0.142659
1563,0.142343
1561,0.141959
1559,0.141726
1557,0.141376
1555,0.141023
1553,0.140818
1551,0.14046
1549,0.140196
1547,0.139984
1545,0.139734
1543,0.139495
1541,0.139175
1539,0.13901
1537,0.138747
1535,0.138559
1533,0.13839
1531,0.138083
1529,0.137969
1527,0.137725
1525,0.137565
1523,0.137397
1521,0.13724
1519,0.137061
1517,0.136874
1515,0.136673
1513,0.136633
1511,0.136456
1509,0.136304
1507,0.136169
1505,0.136007
1503,0.13595
1501,0.135788
1499,0.13568
1497,0.135577
1495,0.135434
1493,0.135336
1491,0.135203
1489,0.135141
1487,0.135092
1485,0.134903
1483,0.134929
1481,0.134798
1479,0.134745
1477,0.134675
1475,0.134546
1473,0.134546
1471,0.134386
1469,0.134336
1467,0.134296
1465,0.134207
1463,0.134149
1461,0.134071
1459,0.134062
1457,0.133965
1455,0.133951
1453,0.133801
1451,0.133784
1449,0.133771
1447,0.13366
1445,0.133651
1443,0.133576
1441,0.133538
1439,0.133458
1437,0.133457
1435,0.133364
1433,0.133368
1431,0.133319
1429,0.133216
1427,0.133189
1425,0.133093
1423,0.133071
1421,0.132991
1419,0.132984
1417,0.132902
1415,0.132926
1413,0.132865
1411,0.132686
1409,0.132703
1407,0.132661
1405,0.132695
1403,0.132584
1401,0.132675
1399,0.132591
1397,0.132432
1395,0.13257
1393,0.132398
1391,0.132362
1389,0.132301
1387,0.13225
1385,0.132155
1383,0.13231
1381,0.132352
1379,0.132137
1377,0.132174
1375,0.132074
1373,0.131884
1371,0.131957
1369,0.131845
1367,0.131867
1365,0.131727
1363,0.131618
1361,0.131856
1359,0.131681
1357,0.131606
1355,0.131588
1353,0.131639
1351,0.131589
1349,0.131553
1347,0.131551
1345,0.131544
1343,0.131473
1341,0.131526
1339,0.131507
1337,0.131534
1335,0.131564
1333,0.131541
1331,0.131553
1329,0.131602
1327,0.131614
1325,0.131628
1323,0.131663
1321,0.131718
1319,0.131768
1317,0.131754
1315,0.131794
1313,0.131891
1311,0.131959
1309,0.131993
1307,0.132017
1305,0.132133
1303,0.132221
1301,0.132304
1299,0.13237
1297,0.132439
1295,0.132617
1293,0.132623
1291,0.132761
1289,0.132942
1287,0.132972
1285,0.133117
1283,0.133312
1281,0.133431
1279,0.13358
1277,0.133758
1275,0.133876
1273,0.134091
1271,0.134291
1269,0.1345
1267,0.134707
1265,0.134883
1263,0.135141
1261,0.13535
1259,0.135594
1257,0.135838
1255,0.136132
1253,0.136378
1251,0.136699
1249,0.136945
1247,0.137232
1245,0.137537
1243,0.137822
1241,0.138156
1239,0.138482
1237,0.138858
1235,0.139119
1233,0.139548
1231,0.139885
1229,0.140253
1227,0.140663
1225,0.140998
1223,0.141443
1221,0.141805
1219,0.142265
1217,0.142754
1215,0.143173
1213,0.143658
1211,0.144171
1209,0.144628
1207,0.145196
1205,0.145719
1203,0.146222
1201,0.146813
1199,0.147207
1197,0.147721
1195,0.148357
1193,0.148945
1191,0.14951
1189,0.150131
1187,0.150791
1185,0.151381
1183,0.152046
1181,0.152637
1179,0.153326
1177,0.153963
1175,0.154598
1173,0.155252
1171,0.155874
1169,0.156584
1167,0.157225
1165,0.15784
1163,0.158512
1161,0.159139
1159,0.159847
1157,0.160526
1155,0.161138
1153,0.16189
1151,0.162592
1149,0.163275
1147,0.164141
1145,0.164904
1143,0.165754
1141,0.166608
1139,0.167509
1137,0.168411
1135,0.16944
1133,0.170423
1131,0.171442
1129,0.172486
1127,0.173584
1125,0.174677
1123,0.175822
1121,0.176952
1119,0.178104
1117,0.179261
1115,0.180375
1113,0.181527
1111,0.182629
1109,0.183688
1107,0.184785
1105,0.185755
1103,0.18674
1101,0.187691
1099,0.188542
1097,0.189317
1095,0.190021
1093,0.190641
1091,0.191189
1089,0.191746
1087,0.192224
1085,0.192564
1083,0.192976
1081,0.193363
1079,0.19365
1077,0.193978
1075,0.194273
1073,0.19469
1071,0.195078
1069,0.195487
1067,0.195896
1065,0.196428
1063,0.196984
1061,0.1975272
1059,0.198131
1057,0.198841
1055,0.19954
1053,0.200268
1051,0.201044
1049,0.201783
1047,0.202588
1045,0.2033
1043,0.204059
1041,0.204774
1039,0.205318
1037,0.20599
1035,0.206496
1033,0.206911
1031,0.207292
1029,0.207508
1027,0.207687
1025,0.207899
1023,0.207817
1021,0.207811
1019,0.207642
1017,0.207446
1015,0.207215
1013,0.206805
1011,0.206579
1009,0.20612
1007,0.205717
1005,0.205255
1003,0.204721
1001,0.204213
999,0.203682
997,0.203081
995,0.202455
993,0.201769
991,0.201066
989,0.200317
987,0.199619
985,0.198874
983,0.1981
981,0.197368
979,0.196649
977,0.195889
975,0.195312
973,0.194625
971,0.193915
969,0.193392
967,0.192788
965,0.192163
963,0.191619
961,0.191031
959,0.19049
957,0.189878
955,0.189308
953,0.18872
951,0.188004
949,0.187341
947,0.186669
945,0.186039
943,0.185177
941,0.184427
939,0.183757
937,0.182991
935,0.182177
933,0.181419
931,0.180731
929,0.179939
927,0.179167
925,0.178341
923,0.177512
921,0.176672
919,0.175984
917,0.175006
915,0.174335
913,0.173568
911,0.172707
909,0.171878
907,0.171356
905,0.170421
903,0.169962
901,0.169011
899,0.160405
897,0.165286
895,0.169202
893,0.160153
891,0.162842
889,0.17064
887,0.167474
885,0.165797
883,0.172369
881,0.166277
879,0.163319
877,0.17077
875,0.160789
873,0.164102
871,0.164353
869,0.162969
867,0.162608
865,0.161662
863,0.160962
861,0.162832
859,0.161655
857,0.162401
855,0.160316
853,0.160821
851,0.160673
849,0.161363
847,0.160291
845,0.161132
843,0.159745
841,0.159589
839,0.159364
837,0.15983
835,0.159786
833,0.16043
831,0.159891
829,0.160108
827,0.160158
825,0.160802
823,0.161022
821,0.160897
819,0.161791
817,0.162059
815,0.162264
813,0.162147
811,0.163176
809,0.163657
807,0.164002
805,0.164297
803,0.164637
801,0.16569
799,0.165822
797,0.166812
795,0.167061
793,0.167118
791,0.16809
789,0.168319
787,0.169044
785,0.169307
783,0.169625
781,0.17032
779,0.170565
777,0.171397
775,0.171702
773,0.172564
771,0.173482
769,0.174512
767,0.175711
765,0.175869
763,0.177373
761,0.17822
759,0.179566
757,0.180363
755,0.18148
753,0.1824
751,0.183484
749,0.184505
747,0.184924
745,0.185479
743,0.186169
741,0.186799
739,0.187115
737,0.187219
735,0.18731
733,0.187206
731,0.187692
729,0.187769
727,0.187894
725,0.187898
723,0.188168
721,0.188626
719,0.1888
717,0.189066
715,0.189606
713,0.190024
711,0.19038
709,0.190828
707,0.191162
705,0.191279
703,0.191242
701,0.191582
699,0.19139
697,0.191306
695,0.191234
693,0.190853
691,0.19069
689,0.190279
687,0.189989
685,0.189589
683,0.189145
681,0.188949
679,0.188721
677,0.188239
675,0.187959
673,0.187498
671,0.187054
669,0.186793
667,0.186262
665,0.185934
663,0.185677
661,0.18542
659,0.185053
657,0.184894
655,0.184671
653,0.18449
651,0.184146
649,0.18394
647,0.183692
645,0.183476
643,0.183315
641,0.182674
639,0.182409
637,0.182245
635,0.181883
633,0.181672
631,0.18147
629,0.181343
627,0.1811
625,0.180925
623,0.180827
621,0.18064
619,0.180419
617,0.180443
615,0.18055
613,0.180444
611,0.180646
609,0.180909
607,0.18106
605,0.181415
603,0.1819
601,0.182413
599,0.182961
597,0.183424
595,0.183887
593,0.184536
591,0.184838
589,0.185149
587,0.185514
585,0.185741
583,0.185847
581,0.185871
579,0.186072
577,0.186219
575,0.186635
573,0.187217
571,0.18773
569,0.188551
567,0.189558
565,0.1906
563,0.191594
561,0.192483
559,0.193321
557,0.19421
555,0.194705
553,0.194855
551,0.194657
549,0.194605
547,0.194153
545,0.193965
543,0.193595
541,0.193564
539,0.193734
537,0.194178
535,0.194828
533,0.195574
531,0.196359
529,0.197117
527,0.197926
525,0.198762
523,0.199177
521,0.199695
519,0.19994
517,0.199755
515,0.199995
513,0.199919
511,0.200361
509,0.20088
507,0.201167
505,0.201893
503,0.202872
501,0.203906
499,0.205159
497,0.20628
495,0.207357
493,0.208096
491,0.208338
489,0.207975
487,0.207596
485,0.206534
483,0.206295
481,0.205784
479,0.20592
477,0.206278
475,0.206964
473,0.208009
471,0.209368
469,0.21009
467,0.210985
465,0.211405
463,0.211022
461,0.210362
459,0.20949
457,0.209159
455,0.208761
453,0.208958
451,0.20938
449,0.210075
447,0.211098
445,0.211816
443,0.212738
441,0.213692
439,0.214088
437,0.214447
435,0.214936
433,0.215518
431,0.215865
429,0.216583
427,0.217852
425,0.218679
423,0.219767
421,0.220508
419,0.221219
417,0.221246
415,0.221594
413,0.221795
411,0.222265
409,0.223243
407,0.224242
405,0.225476
403,0.227128
401,0.22848
399,0.229767
397,0.230454
395,0.231046
393,0.231482
391,0.231846
389,0.233078
387,0.2339
385,0.234784
383,0.236377
381,0.238149
379,0.239585
377,0.24104
375,0.242552
373,0.244318
371,0.246166
369,0.247561
367,0.247996
365,0.249765
363,0.250319
361,0.25185
359,0.253378
357,0.255485
355,0.258219
353,0.260051
351,0.262236
349,0.261585
347,0.262971
345,0.264456
343,0.266692
341,0.268796
339,0.270997
337,0.273249
335,0.276783
333,0.277618
331,0.279642
329,0.281921
327,0.284598
325,0.287784
323,0.290777
321,0.294657
319,0.297739
317,0.301881
315,0.304758
313,0.30867
311,0.312402
309,0.316142
307,0.320962
305,0.325767
303,0.330411
301,0.334875
299,0.339794
297,0.344318
295,0.349332
293,0.3548
291,0.360411
289,0.365545
287,0.370948
285,0.376291
283,0.380867
281,0.384714
279,0.38895
277,0.393025
275,0.394871
273,0.396466
271,0.397441
269,0.397128
267,0.397067
265,0.395809
263,0.394128
261,0.391948
259,0.388953
257,0.385948
255,0.382919
253,0.377833
251,0.372955
249,0.367699
247,0.360965
245,0.353238
243,0.345158
241,0.337935
239,0.330944
237,0.324111
235,0.317923
233,0.312843
231,0.308896
229,0.305556
227,0.303462
225,0.30442
223,0.310203
221,0.32227
219,0.344576
217,0.379077
215,0.421639
213,0.46905
211,0.513431
209,0.550337
207,0.573506
205,0.582336
203,0.577731
201,0.563404
200,0.553378