File: AbsorptionAnalysis/Absorption_Test_BackgroundSubstractions/DodecaneCryostatFilm/Dodecane_KIT_N2_C.txt
Dodecane_KIT_N2_C
Wavelength (nm),Abs
2655,0.0766448
2653,0.0778971
2651,0.0778424
2649,0.078292
2647,0.0779412
2645,0.0804425
2643,0.0787215
2641,0.078397
2639,0.0794319
2637,0.0793499
2635,0.0768144
2633,0.0789836
2631,0.0729942
2629,0.0788362
2627,0.0785101
2625,0.0792698
2623,0.078692
2621,0.0745608
2619,0.0788981
2617,0.0747773
2615,0.0790843
2613,0.0797473
2611,0.0782553
2609,0.079258
2607,0.0782667
2605,0.0819295
2603,0.0785917
2601,0.0789996
2599,0.0787694
2597,0.0771406
2595,0.074948
2593,0.0798674
2591,0.0788338
2589,0.0768636
2587,0.0826665
2585,0.0763313
2583,0.0806291
2581,0.0796617
2579,0.0794154
2577,0.0811164
2575,0.0805116
2573,0.0812288
2571,0.0797958
2569,0.0797593
2567,0.0803739
2565,0.0800158
2563,0.0779022
2561,0.0803122
2559,0.0808801
2557,0.0800497
2555,0.0805881
2553,0.0799319
2551,0.0805129
2549,0.080682
2547,0.0806156
2545,0.081027
2543,0.0803361
2541,0.0806987
2539,0.0810352
2537,0.0800915
2535,0.080816
2533,0.0801322
2531,0.0806088
2529,0.0812492
2527,0.0813335
2525,0.0813411
2523,0.081628
2521,0.0818568
2519,0.0814816
2517,0.0812972
2515,0.0816268
2513,0.0816346
2511,0.0816709
2509,0.0817441
2507,0.0819203
2505,0.0813728
2503,0.082079
2501,0.0819612
2499,0.0821336
2497,0.0823653
2495,0.0820656
2493,0.082469
2491,0.0823859
2489,0.0821623
2487,0.082539
2485,0.0827218
2483,0.0827838
2481,0.0826615
2479,0.0826685
2477,0.0829178
2475,0.0827194
2473,0.0828251
2471,0.083203
2469,0.082901
2467,0.0833815
2465,0.0831425
2463,0.0834044
2461,0.0835841
2459,0.0835625
2457,0.0833703
2455,0.0837524
2453,0.0837336
2451,0.0838769
2449,0.0837414
2447,0.0839438
2445,0.0842574
2443,0.0840511
2441,0.0842681
2439,0.0843651
2437,0.0842607
2435,0.0847838
2433,0.0845927
2431,0.0846228
2429,0.0848983
2427,0.0847076
2425,0.0852368
2423,0.0851182
2421,0.0849004
2419,0.0852887
2417,0.0855125
2415,0.0852562
2413,0.0856026
2411,0.0856196
2409,0.0855913
2407,0.0861829
2405,0.0860201
2403,0.0860349
2401,0.086301
2399,0.086262
2397,0.0864716
2395,0.0868756
2393,0.0866311
2391,0.0868062
2389,0.0872369
2387,0.0869062
2385,0.0873474
2383,0.0873951
2381,0.0873939
2379,0.0878836
2377,0.087773
2375,0.088093
2373,0.0883248
2371,0.088048
2369,0.0883969
2367,0.0884813
2365,0.0888486
2363,0.0887562
2361,0.0890793
2359,0.0892292
2357,0.0893411
2355,0.0896135
2353,0.0896297
2351,0.0899087
2349,0.0902092
2347,0.090415
2345,0.0903587
2343,0.0906834
2341,0.0910016
2339,0.090856
2337,0.0913056
2335,0.0912768
2333,0.0916136
2331,0.0917635
2329,0.0919646
2327,0.092176
2325,0.0922175
2323,0.092732
2321,0.0927598
2319,0.0930775
2317,0.0931651
2315,0.0936671
2313,0.0934726
2311,0.0938415
2309,0.0942283
2307,0.0943272
2305,0.0944784
2303,0.0949782
2301,0.0950309
2299,0.0952844
2297,0.0954411
2295,0.0956497
2293,0.0959325
2291,0.0959214
2289,0.0969001
2287,0.0966201
2285,0.0970421
2283,0.0975212
2281,0.0975218
2279,0.097624
2277,0.0977793
2275,0.0984888
2273,0.0985898
2271,0.099034
2269,0.099248
2267,0.0998037
2265,0.0995801
2263,0.100155
2261,0.100361
2259,0.101082
2257,0.101261
2255,0.101073
2253,0.101852
2251,0.102007
2249,0.102125
2247,0.102679
2245,0.103294
2243,0.103207
2241,0.103682
2239,0.104059
2237,0.104453
2235,0.104764
2233,0.104948
2231,0.105589
2229,0.105523
2227,0.106193
2225,0.106422
2223,0.106919
2221,0.107499
2219,0.1076
2217,0.108103
2215,0.108495
2213,0.109194
2211,0.109544
2209,0.109615
2207,0.110385
2205,0.110881
2203,0.11113
2201,0.111671
2199,0.111607
2197,0.112083
2195,0.112629
2193,0.112852
2191,0.113159
2189,0.113787
2187,0.114169
2185,0.114746
2183,0.114964
2181,0.115125
2179,0.115987
2177,0.116378
2175,0.116795
2173,0.11731
2171,0.117674
2169,0.118083
2167,0.118721
2165,0.119239
2163,0.119369
2161,0.120152
2159,0.120705
2157,0.121055
2155,0.121529
2153,0.121917
2151,0.12238
2149,0.123159
2147,0.123511
2145,0.123926
2143,0.124434
2141,0.125262
2139,0.125747
2137,0.126122
2135,0.126627
2133,0.127215
2131,0.12774
2129,0.128146
2127,0.128783
2125,0.129449
2123,0.130091
2121,0.130576
2119,0.131166
2117,0.131852
2115,0.132325
2113,0.132961
2111,0.133578
2109,0.134179
2107,0.134886
2105,0.13544
2103,0.13597
2101,0.136948
2099,0.137428
2097,0.138103
2095,0.138741
2093,0.139371
2091,0.140146
2089,0.140838
2087,0.141586
2085,0.142186
2083,0.142958
2081,0.143713
2079,0.144346
2077,0.145067
2075,0.145639
2073,0.146467
2071,0.147289
2069,0.14804
2067,0.148822
2065,0.149519
2063,0.150287
2061,0.151067
2059,0.151816
2057,0.152624
2055,0.153465
2053,0.154229
2051,0.154845
2049,0.155603
2047,0.156468
2045,0.157401
2043,0.158124
2041,0.159137
2039,0.159985
2037,0.160615
2035,0.161383
2033,0.162196
2031,0.16311
2029,0.163813
2027,0.164698
2025,0.165344
2023,0.166341
2021,0.167105
2019,0.167961
2017,0.168797
2015,0.169625
2013,0.170357
2011,0.171302
2009,0.171956
2007,0.172749
2005,0.173584
2003,0.174389
2001,0.175143
1999,0.175982
1997,0.176853
1995,0.177582
1993,0.178574
1991,0.179207
1989,0.180017
1987,0.180631
1985,0.181341
1983,0.182177
1981,0.182847
1979,0.183714
1977,0.184342
1975,0.185109
1973,0.185778
1971,0.186625
1969,0.187275
1967,0.18795
1965,0.188657
1963,0.189414
1961,0.190116
1959,0.190704
1957,0.191407
1955,0.192152
1953,0.19283
1951,0.193569
1949,0.194357
1947,0.194944
1945,0.195715
1943,0.196314
1941,0.196941
1939,0.19787
1937,0.198576
1935,0.199167
1933,0.200017
1931,0.200631
1929,0.201421
1927,0.202206
1925,0.202725
1923,0.203531
1921,0.204115
1919,0.205202
1917,0.205603
1915,0.20651
1913,0.207278
1911,0.207994
1909,0.208731
1907,0.209043
1905,0.210397
1903,0.210929
1901,0.211368
1899,0.212536
1897,0.213159
1895,0.213531
1893,0.214521
1891,0.215017
1889,0.215917
1887,0.216384
1885,0.217025
1883,0.217794
1881,0.218351
1879,0.218768
1877,0.219548
1875,0.219794
1873,0.220658
1871,0.221091
1869,0.221643
1867,0.222762
1865,0.222681
1863,0.223256
1861,0.223191
1859,0.224188
1857,0.224377
1855,0.224559
1853,0.22537
1851,0.225286
1849,0.225314
1847,0.226115
1845,0.225947
1843,0.225839
1841,0.226456
1839,0.226382
1837,0.226475
1835,0.226702
1833,0.226325
1831,0.226465
1829,0.226538
1827,0.226199
1825,0.22618
1823,0.225913
1821,0.226002
1819,0.225689
1817,0.225405
1815,0.225191
1813,0.224781
1811,0.224534
1809,0.224109
1807,0.223811
1805,0.223393
1803,0.222963
1801,0.222575
1799,0.222048
1797,0.221567
1795,0.220958
1793,0.220526
1791,0.220053
1789,0.219498
1787,0.218917
1785,0.218462
1783,0.217756
1781,0.217262
1779,0.216587
1777,0.216024
1775,0.215369
1773,0.214676
1771,0.214073
1769,0.213346
1767,0.212778
1765,0.212134
1763,0.211458
1761,0.210713
1759,0.210144
1757,0.209538
1755,0.208867
1753,0.208186
1751,0.20759
1749,0.206777
1747,0.206267
1745,0.205578
1743,0.204794
1741,0.204194
1739,0.203439
1737,0.202787
1735,0.202126
1733,0.201326
1731,0.200757
1729,0.199957
1727,0.199226
1725,0.198529
1723,0.197807
1721,0.197102
1719,0.196243
1717,0.195498
1715,0.194766
1713,0.193982
1711,0.193191
1709,0.19238
1707,0.191697
1705,0.190743
1703,0.189879
1701,0.189141
1699,0.188369
1697,0.187459
1695,0.186712
1693,0.18587
1691,0.185017
1689,0.184173
1687,0.183343
1685,0.182448
1683,0.181676
1681,0.180842
1679,0.179863
1677,0.179161
1675,0.178319
1673,0.177495
1671,0.1767
1669,0.175962
1667,0.175104
1665,0.174308
1663,0.173418
1661,0.172627
1659,0.171864
1657,0.17102
1655,0.170264
1653,0.169438
1651,0.168666
1649,0.167783
1647,0.167037
1645,0.166271
1643,0.165428
1641,0.164688
1639,0.163871
1637,0.163125
1635,0.162383
1633,0.161576
1631,0.160796
1629,0.160018
1627,0.159281
1625,0.158631
1623,0.157745
1621,0.157056
1619,0.156348
1617,0.155616
1615,0.154976
1613,0.154254
1611,0.153637
1609,0.152951
1607,0.152395
1605,0.151662
1603,0.15108
1601,0.150468
1599,0.149899
1597,0.149349
1595,0.148803
1593,0.148268
1591,0.147746
1589,0.14728
1587,0.146725
1585,0.146353
1583,0.14583
1581,0.145428
1579,0.14506
1577,0.144604
1575,0.144137
1573,0.1438
1571,0.143385
1569,0.143067
1567,0.142673
1565,0.14231
1563,0.141985
1561,0.141736
1559,0.141405
1557,0.141077
1555,0.140688
1553,0.140447
1551,0.140166
1549,0.139893
1547,0.139611
1545,0.139406
1543,0.139154
1541,0.138854
1539,0.138658
1537,0.138409
1535,0.1382
1533,0.138013
1531,0.137779
1529,0.137616
1527,0.1374
1525,0.137235
1523,0.13706
1521,0.136882
1519,0.136698
1517,0.136563
1515,0.13639
1513,0.136282
1511,0.136119
1509,0.135953
1507,0.135845
1505,0.135715
1503,0.135643
1501,0.135423
1499,0.135345
1497,0.135262
1495,0.135143
1493,0.135043
1491,0.134891
1489,0.134837
1487,0.134799
1485,0.134548
1483,0.134631
1481,0.134469
1479,0.13446
1477,0.13435
1475,0.134182
1473,0.134209
1471,0.134087
1469,0.133994
1467,0.134026
1465,0.133856
1463,0.133818
1461,0.133763
1459,0.133693
1457,0.133621
1455,0.133631
1453,0.133479
1451,0.133478
1449,0.133421
1447,0.133352
1445,0.133283
1443,0.133281
1441,0.133216
1439,0.133084
1437,0.133162
1435,0.133023
1433,0.133011
1431,0.133027
1429,0.132841
1427,0.132843
1425,0.132778
1423,0.132761
1421,0.132668
1419,0.13267
1417,0.132602
1415,0.132636
1413,0.132539
1411,0.132375
1409,0.13243
1407,0.132394
1405,0.132343
1403,0.132248
1401,0.132311
1399,0.132245
1397,0.132128
1395,0.13225
1393,0.132081
1391,0.132073
1389,0.131906
1387,0.13193
1385,0.131872
1383,0.132021
1381,0.131992
1379,0.131875
1377,0.131878
1375,0.131786
1373,0.131633
1371,0.131631
1369,0.131516
1367,0.131544
1365,0.131401
1363,0.131306
1361,0.131534
1359,0.131331
1357,0.131293
1355,0.131278
1353,0.131328
1351,0.131275
1349,0.131236
1347,0.131253
1345,0.131234
1343,0.131143
1341,0.131183
1339,0.131208
1337,0.131223
1335,0.131253
1333,0.131249
1331,0.131241
1329,0.131285
1327,0.131289
1325,0.131296
1323,0.131294
1321,0.131362
1319,0.131437
1317,0.131405
1315,0.131476
1313,0.131539
1311,0.131586
1309,0.13171
1307,0.131716
1305,0.131804
1303,0.131868
1301,0.131955
1299,0.132027
1297,0.132099
1295,0.132267
1293,0.132276
1291,0.13241
1289,0.132625
1287,0.132676
1285,0.132812
1283,0.132955
1281,0.133124
1279,0.133239
1277,0.133411
1275,0.133564
1273,0.133777
1271,0.133931
1269,0.134169
1267,0.134385
1265,0.13452
1263,0.134775
1261,0.135023
1259,0.135286
1257,0.135541
1255,0.135786
1253,0.13602
1251,0.13632
1249,0.136573
1247,0.136887
1245,0.137222
1243,0.137509
1241,0.137839
1239,0.138167
1237,0.138495
1235,0.138768
1233,0.139178
1231,0.139533
1229,0.139903
1227,0.14033
1225,0.140629
1223,0.141107
1221,0.141486
1219,0.141893
1217,0.142381
1215,0.142825
1213,0.143342
1211,0.143846
1209,0.144306
1207,0.144823
1205,0.145352
1203,0.145858
1201,0.146481
1199,0.146837
1197,0.147376
1195,0.147974
1193,0.148597
1191,0.149157
1189,0.149819
1187,0.150414
1185,0.151029
1183,0.151724
1181,0.152308
1179,0.152972
1177,0.153605
1175,0.154237
1173,0.154894
1171,0.155517
1169,0.156213
1167,0.156874
1165,0.157467
1163,0.158147
1161,0.158811
1159,0.159502
1157,0.160154
1155,0.16083
1153,0.161559
1151,0.162265
1149,0.162971
1147,0.163774
1145,0.164518
1143,0.165435
1141,0.166258
1139,0.167126
1137,0.168071
1135,0.169067
1133,0.170068
1131,0.171121
1129,0.172115
1127,0.173168
1125,0.174353
1123,0.175443
1121,0.176567
1119,0.177753
1117,0.178861
1115,0.17999
1113,0.181173
1111,0.182263
1109,0.183316
1107,0.184429
1105,0.185352
1103,0.186342
1101,0.187302
1099,0.188128
1097,0.188923
1095,0.189647
1093,0.190246
1091,0.190881
1089,0.191356
1087,0.191807
1085,0.192225
1083,0.192575
1081,0.192992
1079,0.193259
1077,0.193604
1075,0.19394
1073,0.194314
1071,0.194721
1069,0.195063
1067,0.195556
1065,0.196028
1063,0.196597
1061,0.197204
1059,0.197763
1057,0.198436
1055,0.199133
1053,0.199887
1051,0.200652
1049,0.201405
1047,0.202204
1045,0.202961
1043,0.203675
1041,0.204368
1039,0.204976
1037,0.205598
1035,0.206055
1033,0.206544
1031,0.206896
1029,0.20712
1027,0.20732
1025,0.207476
1023,0.207414
1021,0.207386
1019,0.207223
1017,0.207043
1015,0.206802
1013,0.206438
1011,0.20618
1009,0.205718
1007,0.205339
1005,0.204943
1003,0.204333
1001,0.203796
999,0.203293
997,0.20269
995,0.20207
993,0.201373
991,0.200658
989,0.19998
987,0.199216
985,0.19849
983,0.19778
981,0.196985
979,0.196257
977,0.195522
975,0.194927
973,0.194338
971,0.193582
969,0.193045
967,0.192407
965,0.191806
963,0.191246
961,0.190659
959,0.190248
957,0.189536
955,0.188979
953,0.188281
951,0.187716
949,0.18695
947,0.186394
945,0.185703
943,0.184807
941,0.18421
939,0.183411
937,0.182563
935,0.18184
933,0.18116
931,0.180425
929,0.179602
927,0.178712
925,0.178016
923,0.177251
921,0.176413
919,0.175737
917,0.174779
915,0.174071
913,0.173286
911,0.172325
909,0.17173
907,0.171018
905,0.170189
903,0.169353
901,0.168893
899,0.16549
897,0.1674
895,0.16848
893,0.167395
891,0.164831
889,0.167602
887,0.166249
885,0.166449
883,0.167009
881,0.166532
879,0.161022
877,0.16679
875,0.160068
873,0.165119
871,0.164721
869,0.162827
867,0.16023
865,0.160843
863,0.161905
861,0.160306
859,0.158839
857,0.16132
855,0.159081
853,0.160814
851,0.159666
849,0.160877
847,0.160647
845,0.159309
843,0.159866
841,0.15958
839,0.158903
837,0.159055
835,0.159366
833,0.160086
831,0.159362
829,0.16005
827,0.160184
825,0.160175
823,0.160809
821,0.160448
819,0.161376
817,0.161574
815,0.162197
813,0.161702
811,0.162765
809,0.162839
807,0.164004
805,0.163691
803,0.164671
801,0.164877
799,0.165394
797,0.16615
795,0.166779
793,0.166804
791,0.167601
789,0.16789
787,0.168646
785,0.168756
783,0.169019
781,0.169826
779,0.170189
777,0.170894
775,0.171337
773,0.172051
771,0.172998
769,0.173811
767,0.175005
765,0.175754
763,0.176575
761,0.177546
759,0.179081
757,0.180067
755,0.181156
753,0.18199
751,0.182891
749,0.183825
747,0.184672
745,0.185218
743,0.185693
741,0.186139
739,0.186594
737,0.186637
735,0.186956
733,0.186971
731,0.187005
729,0.187275
727,0.18738
725,0.187484
723,0.187805
721,0.188259
719,0.188278
717,0.188698
715,0.189111
713,0.189463
711,0.189871
709,0.190346
707,0.190615
705,0.19071
703,0.190948
701,0.191041
699,0.190975
697,0.190736
695,0.190833
693,0.190283
691,0.190186
689,0.18984
687,0.189497
685,0.189247
683,0.188654
681,0.188408
679,0.188068
677,0.187669
675,0.187498
673,0.187061
671,0.186629
669,0.186188
667,0.185916
665,0.185437
663,0.185104
661,0.184904
659,0.18452
657,0.184422
655,0.184144
653,0.184054
651,0.183698
649,0.183381
647,0.183251
645,0.183033
643,0.182856
641,0.182213
639,0.182101
637,0.181726
635,0.181365
633,0.181186
631,0.180873
629,0.180838
627,0.180609
625,0.180353
623,0.180098
621,0.180107
619,0.180002
617,0.180043
615,0.180151
613,0.180079
611,0.180171
609,0.180402
607,0.180544
605,0.180933
603,0.181419
601,0.18199
599,0.182528
597,0.182869
595,0.183388
593,0.183934
591,0.184326
589,0.18471
587,0.184948
585,0.185211
583,0.185447
581,0.185504
579,0.185708
577,0.185819
575,0.186226
573,0.187031
571,0.187475
569,0.188004
567,0.189143
565,0.190295
563,0.191144
561,0.192043
559,0.193067
557,0.193664
555,0.194179
553,0.194434
551,0.194286
549,0.194168
547,0.193668
545,0.193434
543,0.193223
541,0.193081
539,0.193162
537,0.193509
535,0.194394
533,0.19525
531,0.195956
529,0.196767
527,0.197615
525,0.198367
523,0.198696
521,0.19915
519,0.199472
517,0.199432
515,0.199604
513,0.199467
511,0.20009
509,0.200388
507,0.200776
505,0.201618
503,0.202452
501,0.203376
499,0.204861
497,0.20599
495,0.206937
493,0.207714
491,0.207842
489,0.207848
487,0.207185
485,0.206274
483,0.205781
481,0.205371
479,0.205387
477,0.205873
475,0.206571
473,0.207546
471,0.208765
469,0.210052
467,0.210706
465,0.210963
463,0.210493
461,0.21003
459,0.209234
457,0.208687
455,0.208427
453,0.208635
451,0.209026
449,0.209795
447,0.210507
445,0.211461
443,0.212511
441,0.213123
439,0.213743
437,0.214275
435,0.21454
433,0.215195
431,0.215805
429,0.216336
427,0.217619
425,0.218318
423,0.219587
421,0.220351
419,0.220991
417,0.220918
415,0.221238
413,0.22161
411,0.222114
409,0.22306
407,0.224097
405,0.225308
403,0.227066
401,0.227965
399,0.229716
397,0.229933
395,0.230325
393,0.230917
391,0.231782
389,0.232423
387,0.233527
385,0.234589
383,0.236251
381,0.237572
379,0.239331
377,0.240863
375,0.24221
373,0.244329
371,0.245831
369,0.247194
367,0.247928
365,0.249271
363,0.249777
361,0.251595
359,0.25318
357,0.255309
355,0.25773
353,0.259746
351,0.262118
349,0.261428
347,0.2632
345,0.264468
343,0.26644
341,0.268277
339,0.270278
337,0.272934
335,0.275569
333,0.27802
331,0.27959
329,0.282277
327,0.284602
325,0.287161
323,0.290243
321,0.293658
319,0.297184
317,0.300877
315,0.304066
313,0.308142
311,0.312065
309,0.315967
307,0.320816
305,0.325448
303,0.329869
301,0.334549
299,0.339224
297,0.343879
295,0.349155
293,0.354902
291,0.359812
289,0.36565
287,0.370776
285,0.376265
283,0.380574
281,0.384989
279,0.388768
277,0.392471
275,0.394492
273,0.39571
271,0.397118
269,0.396736
267,0.396415
265,0.395005
263,0.393704
261,0.391451
259,0.388789
257,0.385361
255,0.382493
253,0.377844
251,0.373002
249,0.367211
247,0.36102
245,0.353295
243,0.344602
241,0.33744
239,0.330376
237,0.323521
235,0.317507
233,0.312688
231,0.308724
229,0.304709
227,0.302931
225,0.303902
223,0.309645
221,0.322667
219,0.345281
217,0.378773
215,0.421181
213,0.46791
211,0.513509
209,0.549882
207,0.572633
205,0.581744
203,0.577098
201,0.564095
200,0.551992