File: AbsorptionAnalysis/Absorption_Test_BackgroundSubstractions/DodecaneCryostatFilm/Dodecane_KIT_Temp_75.txt
Dodecane_KIT_Temp_75
Wavelength (nm),Abs
2655,0.0824666
2653,0.0787892
2651,0.0826225
2649,0.0825531
2647,0.0826405
2645,0.083416
2643,0.0817867
2641,0.0823111
2639,0.0825332
2637,0.0831627
2635,0.0822827
2633,0.0814461
2631,0.0758857
2629,0.0815636
2627,0.0825493
2625,0.0827605
2623,0.0830074
2621,0.0788218
2619,0.0831474
2617,0.0829275
2615,0.0819344
2613,0.0839871
2611,0.0829508
2609,0.0839955
2607,0.0808562
2605,0.0827975
2603,0.0804063
2601,0.0832203
2599,0.0821118
2597,0.0796438
2595,0.0872329
2593,0.085722
2591,0.0823368
2589,0.0824979
2587,0.0834102
2585,0.0809099
2583,0.082656
2581,0.0839892
2579,0.0830701
2577,0.082683
2575,0.0818262
2573,0.0828539
2571,0.0819006
2569,0.0831525
2567,0.0830966
2565,0.0813297
2563,0.0822258
2561,0.0831942
2559,0.0831421
2557,0.0832644
2555,0.0831162
2553,0.0834851
2551,0.0846778
2549,0.082791
2547,0.0844549
2545,0.0833875
2543,0.0838372
2541,0.0829627
2539,0.0837446
2537,0.0835613
2535,0.0836598
2533,0.0839148
2531,0.0840096
2529,0.0840105
2527,0.0837767
2525,0.0838303
2523,0.0837236
2521,0.0843613
2519,0.083911
2517,0.0839357
2515,0.0844258
2513,0.0841592
2511,0.0842443
2509,0.0842229
2507,0.084105
2505,0.0842993
2503,0.084472
2501,0.0843855
2499,0.084493
2497,0.0847182
2495,0.0847606
2493,0.084953
2491,0.0849754
2489,0.0848389
2487,0.0849619
2485,0.0851351
2483,0.0852054
2481,0.0851701
2479,0.0850848
2477,0.0854559
2475,0.0851823
2473,0.0855639
2471,0.0855654
2469,0.0854689
2467,0.0858537
2465,0.0855113
2463,0.0857792
2461,0.0859498
2459,0.0858489
2457,0.0861279
2455,0.0863596
2453,0.0862512
2451,0.0865307
2449,0.0863712
2447,0.0862596
2445,0.0866607
2443,0.0866125
2441,0.0866702
2439,0.0868243
2437,0.0869368
2435,0.087004
2433,0.0872096
2431,0.0872783
2429,0.0872902
2427,0.0875688
2425,0.0877437
2423,0.0875198
2421,0.0877273
2419,0.087878
2417,0.0878724
2415,0.0880362
2413,0.0882355
2411,0.0880723
2409,0.0883754
2407,0.0887529
2405,0.0885724
2403,0.088817
2401,0.088872
2399,0.0887778
2397,0.089138
2395,0.0892007
2393,0.0893017
2391,0.0895867
2389,0.0896369
2387,0.0898644
2385,0.0899341
2383,0.0900158
2381,0.090161
2379,0.0903207
2377,0.090495
2375,0.0907032
2373,0.0906932
2371,0.0909002
2369,0.0909492
2367,0.091271
2365,0.0913849
2363,0.0913984
2361,0.0918187
2359,0.0917767
2357,0.0922407
2355,0.0921844
2353,0.0924277
2351,0.0925318
2349,0.0926962
2347,0.0931566
2345,0.0929636
2343,0.0935612
2341,0.0933849
2339,0.0937973
2337,0.0937831
2335,0.0940979
2333,0.0943733
2331,0.0942274
2329,0.0949029
2327,0.0946542
2325,0.0951777
2323,0.0952601
2321,0.0955404
2319,0.095641
2317,0.095963
2315,0.0962277
2313,0.0963193
2311,0.0966314
2309,0.0968197
2307,0.0971978
2305,0.0971235
2303,0.0978154
2301,0.0976926
2299,0.0979557
2297,0.0979414
2295,0.0984725
2293,0.0984554
2291,0.099046
2289,0.0993566
2287,0.0996121
2285,0.0995021
2283,0.100196
2281,0.100208
2279,0.100323
2277,0.100545
2275,0.100977
2273,0.101448
2271,0.101365
2269,0.10198
2267,0.102308
2265,0.102705
2263,0.102474
2261,0.103273
2259,0.10341
2257,0.103995
2255,0.103817
2253,0.104368
2251,0.104694
2249,0.105102
2247,0.105515
2245,0.105549
2243,0.106151
2241,0.106119
2239,0.106932
2237,0.107004
2235,0.10757
2233,0.107809
2231,0.108173
2229,0.108482
2227,0.108839
2225,0.109425
2223,0.10943
2221,0.110187
2219,0.11044
2217,0.110686
2215,0.111335
2213,0.111558
2211,0.112222
2209,0.112611
2207,0.112626
2205,0.113431
2203,0.113681
2201,0.114079
2199,0.114447
2197,0.114886
2195,0.115284
2193,0.115964
2191,0.116028
2189,0.116702
2187,0.117207
2185,0.117484
2183,0.117761
2181,0.118215
2179,0.118718
2177,0.119255
2175,0.119795
2173,0.120148
2171,0.120663
2169,0.12129
2167,0.12132
2165,0.122115
2163,0.122382
2161,0.122861
2159,0.1235
2157,0.12423
2155,0.124412
2153,0.125069
2151,0.125448
2149,0.12607
2147,0.126284
2145,0.126974
2143,0.127521
2141,0.127948
2139,0.128577
2137,0.129172
2135,0.129609
2133,0.130114
2131,0.130733
2129,0.131286
2127,0.131692
2125,0.132404
2123,0.133138
2121,0.133378
2119,0.134215
2117,0.134777
2115,0.135276
2113,0.136045
2111,0.136591
2109,0.137141
2107,0.137803
2105,0.138574
2103,0.13891
2101,0.139743
2099,0.14034
2097,0.141019
2095,0.141897
2093,0.142395
2091,0.142962
2089,0.143635
2087,0.144401
2085,0.1451
2083,0.145803
2081,0.146386
2079,0.147074
2077,0.14796
2075,0.148713
2073,0.14923
2071,0.150129
2069,0.151047
2067,0.151592
2065,0.152308
2063,0.15304
2061,0.153938
2059,0.154665
2057,0.155488
2055,0.15621
2053,0.157011
2051,0.157717
2049,0.158505
2047,0.159262
2045,0.160175
2043,0.16099
2041,0.161892
2039,0.162418
2037,0.163309
2035,0.164097
2033,0.164964
2031,0.165828
2029,0.166647
2027,0.167393
2025,0.168115
2023,0.168917
2021,0.169874
2019,0.17071
2017,0.17143
2015,0.172179
2013,0.173079
2011,0.173861
2009,0.174483
2007,0.17541
2005,0.176225
2003,0.176984
2001,0.177727
1999,0.17876
1997,0.179428
1995,0.180198
1993,0.181127
1991,0.181807
1989,0.182526
1987,0.18327
1985,0.183902
1983,0.184771
1981,0.185479
1979,0.186377
1977,0.186972
1975,0.1877
1973,0.188409
1971,0.189215
1969,0.189832
1967,0.190398
1965,0.19115
1963,0.191914
1961,0.192568
1959,0.193284
1957,0.19394
1955,0.194726
1953,0.195331
1951,0.196158
1949,0.196794
1947,0.197508
1945,0.198365
1943,0.198854
1941,0.19958
1939,0.200404
1937,0.20099
1935,0.201711
1933,0.202426
1931,0.203077
1929,0.20391
1927,0.204463
1925,0.20508
1923,0.205908
1921,0.206694
1919,0.2076
1917,0.207938
1915,0.20864
1913,0.209568
1911,0.210348
1909,0.210902
1907,0.211383
1905,0.212577
1903,0.213242
1901,0.213437
1899,0.214696
1897,0.215411
1895,0.215919
1893,0.216709
1891,0.217393
1889,0.218175
1887,0.218655
1885,0.219094
1883,0.219994
1881,0.220511
1879,0.220929
1877,0.221563
1875,0.221947
1873,0.222987
1871,0.223245
1869,0.223594
1867,0.224716
1865,0.224641
1863,0.225325
1861,0.225489
1859,0.226246
1857,0.226355
1855,0.226429
1853,0.227325
1851,0.227188
1849,0.227273
1847,0.228127
1845,0.227806
1843,0.227796
1841,0.228384
1839,0.228472
1837,0.228526
1835,0.228702
1833,0.228456
1831,0.228586
1829,0.228566
1827,0.228161
1825,0.228239
1823,0.227971
1821,0.227987
1819,0.227718
1817,0.227376
1815,0.227164
1813,0.226727
1811,0.226382
1809,0.226188
1807,0.22582
1805,0.225353
1803,0.224866
1801,0.224488
1799,0.224057
1797,0.22349
1795,0.222932
1793,0.2224
1791,0.221967
1789,0.2214
1787,0.220831
1785,0.220285
1783,0.219525
1781,0.219038
1779,0.218433
1777,0.217813
1775,0.217201
1773,0.216574
1771,0.215932
1769,0.215247
1767,0.21467
1765,0.213956
1763,0.213269
1761,0.212655
1759,0.212021
1757,0.211309
1755,0.210689
1753,0.210081
1751,0.209328
1749,0.208621
1747,0.208051
1745,0.207389
1743,0.20664
1741,0.205958
1739,0.205338
1737,0.204637
1735,0.203965
1733,0.203159
1731,0.20257
1729,0.201836
1727,0.201127
1725,0.200336
1723,0.199593
1721,0.198914
1719,0.198162
1717,0.197413
1715,0.196574
1713,0.195911
1711,0.195073
1709,0.194306
1707,0.193511
1705,0.1927
1703,0.191833
1701,0.191059
1699,0.190269
1697,0.189461
1695,0.188543
1693,0.18776
1691,0.186955
1689,0.186106
1687,0.185262
1685,0.18438
1683,0.183584
1681,0.182841
1679,0.181865
1677,0.181083
1675,0.180269
1673,0.17951
1671,0.178668
1669,0.177849
1667,0.177151
1665,0.17633
1663,0.175425
1661,0.174653
1659,0.173868
1657,0.173044
1655,0.172268
1653,0.171405
1651,0.170655
1649,0.169831
1647,0.169023
1645,0.168263
1643,0.16742
1641,0.166679
1639,0.165904
1637,0.165102
1635,0.164377
1633,0.163649
1631,0.162807
1629,0.162085
1627,0.161323
1625,0.160641
1623,0.15985
1621,0.159233
1619,0.158491
1617,0.157788
1615,0.157148
1613,0.156402
1611,0.155805
1609,0.15516
1607,0.15456
1605,0.153907
1603,0.153355
1601,0.152702
1599,0.152249
1597,0.151646
1595,0.151079
1593,0.150572
1591,0.150048
1589,0.149616
1587,0.149077
1585,0.148673
1583,0.148155
1581,0.14781
1579,0.147375
1577,0.146903
1575,0.146586
1573,0.146139
1571,0.14575
1569,0.145461
1567,0.145058
1565,0.144667
1563,0.144397
1561,0.144074
1559,0.143799
1557,0.143465
1555,0.143154
1553,0.142875
1551,0.142546
1549,0.142313
1547,0.142072
1545,0.141849
1543,0.141553
1541,0.141244
1539,0.141131
1537,0.140841
1535,0.140649
1533,0.140486
1531,0.140218
1529,0.140121
1527,0.139907
1525,0.13965
1523,0.139581
1521,0.139339
1519,0.139172
1517,0.139064
1515,0.138837
1513,0.138747
1511,0.138572
1509,0.138447
1507,0.138309
1505,0.138156
1503,0.138087
1501,0.137898
1499,0.137834
1497,0.137724
1495,0.137536
1493,0.137499
1491,0.137327
1489,0.13726
1487,0.137269
1485,0.137039
1483,0.137085
1481,0.136935
1479,0.136914
1477,0.136846
1475,0.136735
1473,0.136651
1471,0.136607
1469,0.136518
1467,0.136488
1465,0.13637
1463,0.136355
1461,0.13623
1459,0.136221
1457,0.13615
1455,0.136087
1453,0.136017
1451,0.13597
1449,0.135913
1447,0.135869
1445,0.135786
1443,0.135763
1441,0.135685
1439,0.135604
1437,0.1356
1435,0.135507
1433,0.135459
1431,0.135514
1429,0.135353
1427,0.135333
1425,0.135286
1423,0.135286
1421,0.13516
1419,0.135134
1417,0.135136
1415,0.135053
1413,0.135017
1411,0.134891
1409,0.134979
1407,0.13486
1405,0.134921
1403,0.134767
1401,0.134699
1399,0.134762
1397,0.134634
1395,0.134787
1393,0.134625
1391,0.134684
1389,0.13461
1387,0.13455
1385,0.134535
1383,0.134616
1381,0.134607
1379,0.134378
1377,0.134326
1375,0.134171
1373,0.134072
1371,0.134296
1369,0.134098
1367,0.134087
1365,0.134062
1363,0.133944
1361,0.134017
1359,0.133923
1357,0.133823
1355,0.13391
1353,0.133879
1351,0.133787
1349,0.133794
1347,0.133769
1345,0.133752
1343,0.133719
1341,0.133742
1339,0.133771
1337,0.133808
1335,0.133779
1333,0.133794
1331,0.133812
1329,0.133843
1327,0.133887
1325,0.133894
1323,0.133907
1321,0.133974
1319,0.133978
1317,0.133969
1315,0.13412
1313,0.134133
1311,0.134132
1309,0.134275
1307,0.134288
1305,0.134404
1303,0.13447
1301,0.134585
1299,0.134621
1297,0.134734
1295,0.134892
1293,0.134913
1291,0.135059
1289,0.135198
1287,0.135301
1285,0.135414
1283,0.135609
1281,0.135731
1279,0.135899
1277,0.136008
1275,0.136187
1273,0.136395
1271,0.136608
1269,0.136827
1267,0.137035
1265,0.137186
1263,0.137466
1261,0.137672
1259,0.137946
1257,0.13819
1255,0.138445
1253,0.138651
1251,0.138959
1249,0.139247
1247,0.139569
1245,0.13988
1243,0.140181
1241,0.140503
1239,0.140844
1237,0.141165
1235,0.14144
1233,0.141895
1231,0.142245
1229,0.142618
1227,0.143023
1225,0.14331
1223,0.143795
1221,0.144224
1219,0.144624
1217,0.145109
1215,0.145581
1213,0.146046
1211,0.146554
1209,0.147071
1207,0.147554
1205,0.148098
1203,0.148636
1201,0.149213
1199,0.149573
1197,0.150109
1195,0.150694
1193,0.15135
1191,0.151913
1189,0.152546
1187,0.153149
1185,0.153772
1183,0.154441
1181,0.155046
1179,0.155732
1177,0.156356
1175,0.157023
1173,0.157678
1171,0.158243
1169,0.158945
1167,0.159585
1165,0.160206
1163,0.160939
1161,0.161557
1159,0.162208
1157,0.162972
1155,0.163593
1153,0.164327
1151,0.16509
1149,0.16574
1147,0.166569
1145,0.167339
1143,0.168251
1141,0.169069
1139,0.169967
1137,0.170869
1135,0.171898
1133,0.172874
1131,0.1739
1129,0.174942
1127,0.176077
1125,0.177134
1123,0.178304
1121,0.179415
1119,0.180559
1117,0.181699
1115,0.182805
1113,0.183927
1111,0.185026
1109,0.186099
1107,0.187176
1105,0.188164
1103,0.189118
1101,0.190043
1099,0.190934
1097,0.191694
1095,0.192358
1093,0.193029
1091,0.193609
1089,0.194107
1087,0.194607
1085,0.194978
1083,0.195366
1081,0.195782
1079,0.196077
1077,0.196403
1075,0.196791
1073,0.197185
1071,0.197571
1069,0.197951
1067,0.198396
1065,0.198917
1063,0.19948
1061,0.200083
1059,0.200711
1057,0.201389
1055,0.202047
1053,0.202769
1051,0.203575
1049,0.204304
1047,0.205094
1045,0.205841
1043,0.206511
1041,0.207259
1039,0.207765
1037,0.208376
1035,0.208914
1033,0.209304
1031,0.209636
1029,0.209927
1027,0.210073
1025,0.210213
1023,0.21018
1021,0.210191
1019,0.209985
1017,0.209794
1015,0.209536
1013,0.20919
1011,0.208885
1009,0.208447
1007,0.208075
1005,0.20766
1003,0.207047
1001,0.206504
999,0.205959
997,0.205317
995,0.20471
993,0.204019
991,0.203252
989,0.202594
987,0.201846
985,0.201136
983,0.200383
981,0.199611
979,0.198844
977,0.198095
975,0.197497
973,0.196903
971,0.196205
969,0.19574
967,0.195042
965,0.194399
963,0.193937
961,0.19332
959,0.192826
957,0.192075
955,0.191648
953,0.190967
951,0.190249
949,0.189623
947,0.188824
945,0.188211
943,0.18744
941,0.186616
939,0.185981
937,0.185178
935,0.184389
933,0.183594
931,0.18293
929,0.182084
927,0.181273
925,0.180424
923,0.179679
921,0.178864
919,0.178091
917,0.177169
915,0.176397
913,0.175586
911,0.174772
909,0.174073
907,0.173441
905,0.172711
903,0.17177
901,0.171148
899,0.168216
897,0.169773
895,0.175097
893,0.165033
891,0.168049
889,0.170762
887,0.168759
885,0.168065
883,0.170021
881,0.165086
879,0.166894
877,0.169504
875,0.165045
873,0.16519
871,0.166257
869,0.164196
867,0.164082
865,0.163192
863,0.164689
861,0.165089
859,0.165061
857,0.166162
855,0.162475
853,0.162989
851,0.163457
849,0.163791
847,0.163887
845,0.162895
843,0.163628
841,0.163368
839,0.163063
837,0.163346
835,0.162995
833,0.163742
831,0.163427
829,0.163816
827,0.163346
825,0.163991
823,0.164528
821,0.164562
819,0.164757
817,0.165093
815,0.165617
813,0.165084
811,0.16607
809,0.166682
807,0.166799
805,0.167533
803,0.167823
801,0.168328
799,0.168873
797,0.169668
795,0.169808
793,0.170268
791,0.170833
789,0.171254
787,0.171958
785,0.172201
783,0.172521
781,0.173082
779,0.173967
777,0.174346
775,0.174899
773,0.175734
771,0.176265
769,0.177666
767,0.178422
765,0.179195
763,0.180225
761,0.181156
759,0.182202
757,0.183526
755,0.18492
753,0.185333
751,0.186357
749,0.187372
747,0.188007
745,0.188557
743,0.188999
741,0.189531
739,0.18968
737,0.190115
735,0.190169
733,0.190235
731,0.19043
729,0.190489
727,0.190601
725,0.190834
723,0.191133
721,0.191502
719,0.191815
717,0.192091
715,0.192504
713,0.192865
711,0.19326
709,0.193468
707,0.193693
705,0.193941
703,0.194125
701,0.194121
699,0.194204
697,0.194075
695,0.193861
693,0.193653
691,0.193433
689,0.193049
687,0.192708
685,0.192482
683,0.19206
681,0.191585
679,0.191432
677,0.190867
675,0.190634
673,0.190299
671,0.189722
669,0.189465
667,0.188898
665,0.188685
663,0.188308
661,0.188014
659,0.187867
657,0.18754
655,0.187369
653,0.18724
651,0.186857
649,0.186762
647,0.186469
645,0.186167
643,0.186109
641,0.18546
639,0.185455
637,0.185169
635,0.184705
633,0.184545
631,0.18436
629,0.184155
627,0.183945
625,0.183853
623,0.183624
621,0.183546
619,0.183345
617,0.183352
615,0.183561
613,0.183397
611,0.183644
609,0.183854
607,0.183983
605,0.184458
603,0.184804
601,0.185498
599,0.185793
597,0.186332
595,0.186752
593,0.18726
591,0.187646
589,0.187977
587,0.188411
585,0.188684
583,0.188904
581,0.188854
579,0.189011
577,0.189435
575,0.189623
573,0.190319
571,0.190901
569,0.19163
567,0.192638
565,0.193802
563,0.194811
561,0.195734
559,0.196576
557,0.197247
555,0.197643
553,0.197838
551,0.197556
549,0.197587
547,0.197165
545,0.196757
543,0.196498
541,0.196586
539,0.196739
537,0.197184
535,0.197866
533,0.198736
531,0.19948
529,0.200232
527,0.20105
525,0.201651
523,0.202229
521,0.202521
519,0.202914
517,0.20282
515,0.203124
513,0.20296
511,0.203291
509,0.20382
507,0.204142
505,0.204987
503,0.205765
501,0.206814
499,0.208124
497,0.209119
495,0.210224
493,0.210935
491,0.211084
489,0.210833
487,0.210271
485,0.209387
483,0.208909
481,0.208527
479,0.208624
477,0.209046
475,0.209869
473,0.211022
471,0.212066
469,0.213143
467,0.213827
465,0.213862
463,0.213776
461,0.213269
459,0.21245
457,0.211864
455,0.211659
453,0.211762
451,0.2124
449,0.212967
447,0.213774
445,0.214632
443,0.215771
441,0.216183
439,0.21689
437,0.217035
435,0.217821
433,0.218342
431,0.219018
429,0.219503
427,0.220644
425,0.221207
423,0.222511
421,0.223232
419,0.223957
417,0.223763
415,0.224191
413,0.224649
411,0.225122
409,0.226191
407,0.227142
405,0.228445
403,0.229894
401,0.231043
399,0.232263
397,0.233182
395,0.233406
393,0.234309
391,0.234874
389,0.235717
387,0.236581
385,0.237756
383,0.238902
381,0.24058
379,0.241957
377,0.243823
375,0.245331
373,0.247185
371,0.248508
369,0.249911
367,0.250912
365,0.252196
363,0.252714
361,0.254384
359,0.256204
357,0.258419
355,0.260998
353,0.262989
351,0.265306
349,0.265231
347,0.266193
345,0.267119
343,0.270338
341,0.272118
339,0.273613
337,0.276491
335,0.279056
333,0.281157
331,0.28348
329,0.285952
327,0.288232
325,0.290817
323,0.294166
321,0.298155
319,0.301612
317,0.30489
315,0.308355
313,0.312308
311,0.315389
309,0.320593
307,0.324691
305,0.329527
303,0.334103
301,0.339048
299,0.343274
297,0.348267
295,0.353322
293,0.35903
291,0.36431
289,0.369765
287,0.375443
285,0.380153
283,0.384609
281,0.388799
279,0.392487
277,0.396345
275,0.398793
273,0.399849
271,0.401049
269,0.401021
267,0.40036
265,0.399614
263,0.397574
261,0.395299
259,0.39255
257,0.389247
255,0.385779
253,0.381474
251,0.376398
249,0.370591
247,0.364231
245,0.356501
243,0.348251
241,0.341277
239,0.334235
237,0.327861
235,0.322185
233,0.316819
231,0.313136
229,0.310303
227,0.30883
225,0.310301
223,0.317081
221,0.330885
219,0.354316
217,0.388708
215,0.430525
213,0.476392
211,0.51865
209,0.55296
207,0.575107
205,0.583068
203,0.580484
201,0.56595
200,0.555679