File: Absorption_Analysis/TGA/20250825-01 TCNQ filled.txt
         Index            Ts             t            HF        Weight            Tr
           [#]          [°C]           [s]       [Wg^-1]           [%]          [°C]
             0   2,86139e+01   0,00000e+00  -2,27112e+00   9,99403e+01   3,00000e+01
             8   2,94133e+01   8,00000e+00  -2,11921e+00   9,94863e+01   3,13333e+01
            16   3,05460e+01   1,60000e+01  -1,93967e+00   9,92586e+01   3,26667e+01
            24   3,17315e+01   2,40000e+01  -1,76769e+00   9,89762e+01   3,40000e+01
            32   3,29427e+01   3,20000e+01  -1,62074e+00   9,86400e+01   3,53333e+01
            40   3,41735e+01   4,00000e+01  -1,49257e+00   9,83328e+01   3,66667e+01
            48   3,54285e+01   4,80000e+01  -1,38986e+00   9,80630e+01   3,80000e+01
            56   3,67001e+01   5,60000e+01  -1,30123e+00   9,78351e+01   3,93333e+01
            64   3,79782e+01   6,40000e+01  -1,22847e+00   9,76265e+01   4,06667e+01
            72   3,92853e+01   7,20000e+01  -1,16261e+00   9,74635e+01   4,20000e+01
            80   4,05958e+01   8,00000e+01  -1,10729e+00   9,73377e+01   4,33333e+01
            88   4,19046e+01   8,80000e+01  -1,06467e+00   9,72253e+01   4,46667e+01
            96   4,32352e+01   9,60000e+01  -1,02381e+00   9,71124e+01   4,60000e+01
           104   4,45806e+01   1,04000e+02  -9,86333e-01   9,70302e+01   4,73333e+01
           112   4,59213e+01   1,12000e+02  -9,45473e-01   9,69392e+01   4,86667e+01
           120   4,72655e+01   1,20000e+02  -9,05131e-01   9,68540e+01   5,00000e+01
           128   4,86158e+01   1,28000e+02  -8,72476e-01   9,67800e+01   5,13333e+01
           136   4,99664e+01   1,36000e+02  -8,42157e-01   9,66936e+01   5,26667e+01
           144   5,13099e+01   1,44000e+02  -8,11481e-01   9,66145e+01   5,40000e+01
           152   5,26728e+01   1,52000e+02  -7,81375e-01   9,65266e+01   5,53333e+01
           160   5,40225e+01   1,60000e+02  -7,47578e-01   9,64388e+01   5,66667e+01
           168   5,53759e+01   1,68000e+02  -7,17123e-01   9,63762e+01   5,80000e+01
           176   5,67268e+01   1,76000e+02  -6,91566e-01   9,63282e+01   5,93333e+01
           184   5,80840e+01   1,84000e+02  -6,70642e-01   9,62714e+01   6,06667e+01
           192   5,94460e+01   1,92000e+02  -6,50827e-01   9,62068e+01   6,20000e+01
           200   6,07883e+01   2,00000e+02  -6,28856e-01   9,61550e+01   6,33333e+01
           208   6,21326e+01   2,08000e+02  -6,06046e-01   9,61096e+01   6,46667e+01
           216   6,34686e+01   2,16000e+02  -5,83438e-01   9,60372e+01   6,60000e+01
           224   6,48103e+01   2,24000e+02  -5,69398e-01   9,59765e+01   6,73333e+01
           232   6,61617e+01   2,32000e+02  -5,53085e-01   9,59187e+01   6,86667e+01
           240   6,74900e+01   2,40000e+02  -5,35039e-01   9,58695e+01   7,00000e+01
           248   6,88468e+01   2,48000e+02  -5,16709e-01   9,58303e+01   7,13333e+01
           256   7,01935e+01   2,56000e+02  -5,01717e-01   9,58012e+01   7,26667e+01
           264   7,15125e+01   2,64000e+02  -4,91478e-01   9,57542e+01   7,40000e+01
           272   7,28668e+01   2,72000e+02  -4,82604e-01   9,56826e+01   7,53333e+01
           280   7,42006e+01   2,80000e+02  -4,74981e-01   9,56428e+01   7,66667e+01
           288   7,55429e+01   2,88000e+02  -4,65658e-01   9,56152e+01   7,80000e+01
           296   7,68903e+01   2,96000e+02  -4,55567e-01   9,55849e+01   7,93333e+01
           304   7,82197e+01   3,04000e+02  -4,44668e-01   9,55521e+01   8,06667e+01
           312   7,95759e+01   3,12000e+02  -4,39495e-01   9,55155e+01   8,20000e+01
           320   8,08993e+01   3,20000e+02  -4,33870e-01   9,54839e+01   8,33333e+01
           328   8,22325e+01   3,28000e+02  -4,26782e-01   9,54355e+01   8,46667e+01
           336   8,35728e+01   3,36000e+02  -4,18846e-01   9,53942e+01   8,60000e+01
           344   8,49167e+01   3,44000e+02  -4,12492e-01   9,53726e+01   8,73333e+01
           352   8,62506e+01   3,52000e+02  -4,08425e-01   9,53605e+01   8,86667e+01
           360   8,76078e+01   3,60000e+02  -4,03889e-01   9,53278e+01   9,00000e+01
           368   8,89326e+01   3,68000e+02  -4,02725e-01   9,52994e+01   9,13333e+01
           376   9,02609e+01   3,76000e+02  -3,96949e-01   9,52796e+01   9,26667e+01
           384   9,16136e+01   3,84000e+02  -3,87529e-01   9,52515e+01   9,40000e+01
           392   9,29440e+01   3,92000e+02  -3,81416e-01   9,52202e+01   9,53333e+01
           400   9,42868e+01   4,00000e+02  -3,78499e-01   9,51944e+01   9,66667e+01
           408   9,56164e+01   4,08000e+02  -3,79139e-01   9,51655e+01   9,80000e+01
           416   9,69504e+01   4,16000e+02  -3,76364e-01   9,51371e+01   9,93333e+01
           424   9,82993e+01   4,24000e+02  -3,72129e-01   9,51195e+01   1,00667e+02
           432   9,96227e+01   4,32000e+02  -3,70795e-01   9,51048e+01   1,02000e+02
           440   1,00957e+02   4,40000e+02  -3,69789e-01   9,50858e+01   1,03333e+02
           448   1,02306e+02   4,48000e+02  -3,68965e-01   9,50673e+01   1,04667e+02
           456   1,03655e+02   4,56000e+02  -3,71597e-01   9,50542e+01   1,06000e+02
           464   1,04988e+02   4,64000e+02  -3,74690e-01   9,50471e+01   1,07333e+02
           472   1,06328e+02   4,72000e+02  -3,71170e-01   9,50274e+01   1,08667e+02
           480   1,07660e+02   4,80000e+02  -3,67970e-01   9,50022e+01   1,10000e+02
           488   1,09000e+02   4,88000e+02  -3,61242e-01   9,49759e+01   1,11333e+02
           496   1,10357e+02   4,96000e+02  -3,51325e-01   9,49445e+01   1,12667e+02
           504   1,11684e+02   5,04000e+02  -3,38166e-01   9,49213e+01   1,14000e+02
           512   1,13025e+02   5,12000e+02  -3,18287e-01   9,48914e+01   1,15333e+02
           520   1,14356e+02   5,20000e+02  -2,96276e-01   9,48584e+01   1,16667e+02
           528   1,15715e+02   5,28000e+02  -2,84500e-01   9,48160e+01   1,18000e+02
           536   1,17043e+02   5,36000e+02  -2,74043e-01   9,47727e+01   1,19333e+02
           544   1,18381e+02   5,44000e+02  -2,61498e-01   9,47471e+01   1,20667e+02
           552   1,19720e+02   5,52000e+02  -2,58360e-01   9,47334e+01   1,22000e+02
           560   1,21061e+02   5,60000e+02  -2,60588e-01   9,47201e+01   1,23333e+02
           568   1,22407e+02   5,68000e+02  -2,69254e-01   9,47077e+01   1,24667e+02
           576   1,23764e+02   5,76000e+02  -2,74112e-01   9,46865e+01   1,26000e+02
           584   1,25110e+02   5,84000e+02  -2,84230e-01   9,46811e+01   1,27333e+02
           592   1,26439e+02   5,92000e+02  -3,01481e-01   9,46757e+01   1,28667e+02
           600   1,27795e+02   6,00000e+02  -3,17115e-01   9,46655e+01   1,30000e+02
           608   1,29141e+02   6,08000e+02  -3,28253e-01   9,46575e+01   1,31333e+02
           616   1,30486e+02   6,16000e+02  -3,38661e-01   9,46509e+01   1,32667e+02
           624   1,31829e+02   6,24000e+02  -3,51974e-01   9,46446e+01   1,34000e+02
           632   1,33168e+02   6,32000e+02  -3,65766e-01   9,46425e+01   1,35333e+02
           640   1,34512e+02   6,40000e+02  -3,84690e-01   9,46429e+01   1,36667e+02
           648   1,35845e+02   6,48000e+02  -3,99417e-01   9,46455e+01   1,38000e+02
           656   1,37188e+02   6,56000e+02  -4,18121e-01   9,46374e+01   1,39333e+02
           664   1,38539e+02   6,64000e+02  -4,31221e-01   9,46276e+01   1,40667e+02
           672   1,39897e+02   6,72000e+02  -4,46580e-01   9,46295e+01   1,42000e+02
           680   1,41233e+02   6,80000e+02  -4,60217e-01   9,46376e+01   1,43333e+02
           688   1,42599e+02   6,88000e+02  -4,68486e-01   9,46347e+01   1,44667e+02
           696   1,43928e+02   6,96000e+02  -4,77322e-01   9,46125e+01   1,46000e+02
           704   1,45294e+02   7,04000e+02  -4,89362e-01   9,46072e+01   1,47333e+02
           712   1,46650e+02   7,12000e+02  -5,05813e-01   9,46090e+01   1,48667e+02
           720   1,47976e+02   7,20000e+02  -5,10086e-01   9,46058e+01   1,50000e+02
           728   1,49328e+02   7,28000e+02  -5,19247e-01   9,45971e+01   1,51333e+02
           736   1,50676e+02   7,36000e+02  -5,33226e-01   9,45886e+01   1,52667e+02
           744   1,52024e+02   7,44000e+02  -5,40165e-01   9,45766e+01   1,54000e+02
           752   1,53379e+02   7,52000e+02  -5,48138e-01   9,45714e+01   1,55333e+02
           760   1,54732e+02   7,60000e+02  -5,56483e-01   9,45656e+01   1,56667e+02
           768   1,56075e+02   7,68000e+02  -5,64359e-01   9,45708e+01   1,58000e+02
           776   1,57436e+02   7,76000e+02  -5,83396e-01   9,45665e+01   1,59333e+02
           784   1,58779e+02   7,84000e+02  -5,96205e-01   9,45581e+01   1,60667e+02
           792   1,60123e+02   7,92000e+02  -5,97410e-01   9,45540e+01   1,62000e+02
           800   1,61480e+02   8,00000e+02  -6,00847e-01   9,45413e+01   1,63333e+02
           808   1,62816e+02   8,08000e+02  -6,06849e-01   9,45336e+01   1,64667e+02
           816   1,64184e+02   8,16000e+02  -6,09670e-01   9,45326e+01   1,66000e+02
           824   1,65528e+02   8,24000e+02  -6,14773e-01   9,45337e+01   1,67333e+02
           832   1,66880e+02   8,32000e+02  -6,25817e-01   9,45222e+01   1,68667e+02
           840   1,68230e+02   8,40000e+02  -6,37045e-01   9,45255e+01   1,70000e+02
           848   1,69589e+02   8,48000e+02  -6,43433e-01   9,45258e+01   1,71333e+02
           856   1,70940e+02   8,56000e+02  -6,49398e-01   9,45199e+01   1,72667e+02
           864   1,72289e+02   8,64000e+02  -6,55499e-01   9,44942e+01   1,74000e+02
           872   1,73646e+02   8,72000e+02  -6,58409e-01   9,44899e+01   1,75333e+02
           880   1,74993e+02   8,80000e+02  -6,64706e-01   9,44930e+01   1,76667e+02
           888   1,76347e+02   8,88000e+02  -6,75563e-01   9,44847e+01   1,78000e+02
           896   1,77706e+02   8,96000e+02  -6,82224e-01   9,44734e+01   1,79333e+02
           904   1,79055e+02   9,04000e+02  -6,89329e-01   9,44697e+01   1,80667e+02
           912   1,80398e+02   9,12000e+02  -6,93805e-01   9,44670e+01   1,82000e+02
           920   1,81748e+02   9,20000e+02  -6,99514e-01   9,44627e+01   1,83333e+02
           928   1,83115e+02   9,28000e+02  -7,04453e-01   9,44618e+01   1,84667e+02
           936   1,84460e+02   9,36000e+02  -7,22540e-01   9,44499e+01   1,86000e+02
           944   1,85829e+02   9,44000e+02  -7,31307e-01   9,44541e+01   1,87333e+02
           952   1,87168e+02   9,52000e+02  -7,36410e-01   9,44588e+01   1,88667e+02
           960   1,88521e+02   9,60000e+02  -7,43927e-01   9,44454e+01   1,90000e+02
           968   1,89874e+02   9,68000e+02  -7,47256e-01   9,44471e+01   1,91333e+02
           976   1,91222e+02   9,76000e+02  -7,47830e-01   9,44396e+01   1,92667e+02
           984   1,92583e+02   9,84000e+02  -7,44940e-01   9,44237e+01   1,94000e+02
           992   1,93937e+02   9,92000e+02  -7,53904e-01   9,44137e+01   1,95333e+02
          1000   1,95296e+02   1,00000e+03  -7,56062e-01   9,44073e+01   1,96667e+02
          1008   1,96646e+02   1,00800e+03  -7,61331e-01   9,43910e+01   1,98000e+02
          1016   1,98001e+02   1,01600e+03  -7,65497e-01   9,43841e+01   1,99333e+02
          1024   1,99348e+02   1,02400e+03  -7,73710e-01   9,43739e+01   2,00667e+02
          1032   2,00713e+02   1,03200e+03  -7,83159e-01   9,43631e+01   2,02000e+02
          1040   2,02079e+02   1,04000e+03  -7,91140e-01   9,43450e+01   2,03333e+02
          1048   2,03422e+02   1,04800e+03  -7,97356e-01   9,43364e+01   2,04667e+02
          1056   2,04776e+02   1,05600e+03  -7,99750e-01   9,43201e+01   2,06000e+02
          1064   2,06136e+02   1,06400e+03  -8,06629e-01   9,42987e+01   2,07333e+02
          1072   2,07498e+02   1,07200e+03  -8,16039e-01   9,42875e+01   2,08667e+02
          1080   2,08837e+02   1,08000e+03  -8,20616e-01   9,42784e+01   2,10000e+02
          1088   2,10203e+02   1,08800e+03  -8,22864e-01   9,42474e+01   2,11333e+02
          1096   2,11556e+02   1,09600e+03  -8,20174e-01   9,42374e+01   2,12667e+02
          1104   2,12895e+02   1,10400e+03  -8,24878e-01   9,41994e+01   2,14000e+02
          1112   2,14262e+02   1,11200e+03  -8,29053e-01   9,41678e+01   2,15333e+02
          1120   2,15625e+02   1,12000e+03  -8,33548e-01   9,41457e+01   2,16667e+02
          1128   2,16971e+02   1,12800e+03  -8,35766e-01   9,40997e+01   2,18000e+02
          1136   2,18330e+02   1,13600e+03  -8,36195e-01   9,40496e+01   2,19333e+02
          1144   2,19686e+02   1,14400e+03  -8,33444e-01   9,40205e+01   2,20667e+02
          1152   2,21048e+02   1,15200e+03  -8,37352e-01   9,39843e+01   2,22000e+02
          1160   2,22389e+02   1,16000e+03  -8,43166e-01   9,39314e+01   2,23333e+02
          1168   2,23747e+02   1,16800e+03  -8,42993e-01   9,38581e+01   2,24667e+02
          1176   2,25100e+02   1,17600e+03  -8,40835e-01   9,37787e+01   2,26000e+02
          1184   2,26452e+02   1,18400e+03  -8,40735e-01   9,36800e+01   2,27333e+02
          1192   2,27812e+02   1,19200e+03  -8,38253e-01   9,35907e+01   2,28667e+02
          1200   2,29165e+02   1,20000e+03  -8,38162e-01   9,34785e+01   2,30000e+02
          1208   2,30511e+02   1,20800e+03  -8,32531e-01   9,33599e+01   2,31333e+02
          1216   2,31870e+02   1,21600e+03  -8,25024e-01   9,32125e+01   2,32667e+02
          1224   2,33230e+02   1,22400e+03  -8,19971e-01   9,30452e+01   2,34000e+02
          1232   2,34589e+02   1,23200e+03  -8,13847e-01   9,28631e+01   2,35333e+02
          1240   2,35938e+02   1,24000e+03  -8,06303e-01   9,26607e+01   2,36667e+02
          1248   2,37295e+02   1,24800e+03  -7,98277e-01   9,24471e+01   2,38000e+02
          1256   2,38654e+02   1,25600e+03  -7,88203e-01   9,22119e+01   2,39333e+02
          1264   2,39996e+02   1,26400e+03  -7,79004e-01   9,19490e+01   2,40667e+02
          1272   2,41348e+02   1,27200e+03  -7,67730e-01   9,16628e+01   2,42000e+02
          1280   2,42719e+02   1,28000e+03  -7,52958e-01   9,13431e+01   2,43333e+02
          1288   2,44072e+02   1,28800e+03  -7,31179e-01   9,09861e+01   2,44667e+02
          1296   2,45436e+02   1,29600e+03  -7,07453e-01   9,05865e+01   2,46000e+02
          1304   2,46794e+02   1,30400e+03  -6,89033e-01   9,01337e+01   2,47333e+02
          1312   2,48145e+02   1,31200e+03  -6,74106e-01   8,96322e+01   2,48667e+02
          1320   2,49493e+02   1,32000e+03  -6,56500e-01   8,90788e+01   2,50000e+02
          1328   2,50853e+02   1,32800e+03  -6,40420e-01   8,84654e+01   2,51333e+02
          1336   2,52208e+02   1,33600e+03  -6,13016e-01   8,78020e+01   2,52667e+02
          1344   2,53564e+02   1,34400e+03  -5,78827e-01   8,70756e+01   2,54000e+02
          1352   2,54912e+02   1,35200e+03  -5,51098e-01   8,62803e+01   2,55333e+02
          1360   2,56271e+02   1,36000e+03  -5,27074e-01   8,54201e+01   2,56667e+02
          1368   2,57629e+02   1,36800e+03  -4,98175e-01   8,45113e+01   2,58000e+02
          1376   2,58985e+02   1,37600e+03  -4,81334e-01   8,35565e+01   2,59333e+02
          1384   2,60332e+02   1,38400e+03  -4,72558e-01   8,25763e+01   2,60667e+02
          1392   2,61690e+02   1,39200e+03  -4,63600e-01   8,15887e+01   2,62000e+02
          1400   2,63037e+02   1,40000e+03  -4,72947e-01   8,06160e+01   2,63333e+02
          1408   2,64393e+02   1,40800e+03  -4,94156e-01   7,96878e+01   2,64667e+02
          1416   2,65751e+02   1,41600e+03  -5,27356e-01   7,88382e+01   2,66000e+02
          1424   2,67086e+02   1,42400e+03  -5,68923e-01   7,81067e+01   2,67333e+02
          1432   2,68441e+02   1,43200e+03  -6,21032e-01   7,75175e+01   2,68667e+02
          1440   2,69788e+02   1,44000e+03  -6,72123e-01   7,70732e+01   2,70000e+02
          1448   2,71146e+02   1,44800e+03  -7,16520e-01   7,67555e+01   2,71333e+02
          1456   2,72486e+02   1,45600e+03  -7,48894e-01   7,65289e+01   2,72667e+02
          1464   2,73847e+02   1,46400e+03  -7,75321e-01   7,63755e+01   2,74000e+02
          1472   2,75210e+02   1,47200e+03  -8,01382e-01   7,62463e+01   2,75333e+02
          1480   2,76557e+02   1,48000e+03  -8,21463e-01   7,61401e+01   2,76667e+02
          1488   2,77912e+02   1,48800e+03  -8,30723e-01   7,60362e+01   2,78000e+02
          1496   2,79266e+02   1,49600e+03  -8,41717e-01   7,59355e+01   2,79333e+02
          1504   2,80613e+02   1,50400e+03  -8,51005e-01   7,58478e+01   2,80667e+02
          1512   2,81972e+02   1,51200e+03  -8,58439e-01   7,57700e+01   2,82000e+02
          1520   2,83320e+02   1,52000e+03  -8,61459e-01   7,56947e+01   2,83333e+02
          1528   2,84673e+02   1,52800e+03  -8,59798e-01   7,56194e+01   2,84667e+02
          1536   2,86028e+02   1,53600e+03  -8,64534e-01   7,55449e+01   2,86000e+02
          1544   2,87377e+02   1,54400e+03  -8,66408e-01   7,54809e+01   2,87333e+02
          1552   2,88731e+02   1,55200e+03  -8,60796e-01   7,54263e+01   2,88667e+02
          1560   2,90085e+02   1,56000e+03  -8,53972e-01   7,53650e+01   2,90000e+02
          1568   2,91428e+02   1,56800e+03  -8,55969e-01   7,53002e+01   2,91333e+02
          1576   2,92790e+02   1,57600e+03  -8,59626e-01   7,52361e+01   2,92667e+02
          1584   2,94138e+02   1,58400e+03  -8,59833e-01   7,51685e+01   2,94000e+02
          1592   2,95495e+02   1,59200e+03  -8,68552e-01   7,50991e+01   2,95333e+02
          1600   2,96860e+02   1,60000e+03  -8,67555e-01   7,50540e+01   2,96667e+02
          1608   2,98222e+02   1,60800e+03  -8,70649e-01   7,50005e+01   2,98000e+02
          1616   2,99560e+02   1,61600e+03  -8,71680e-01   7,49449e+01   2,99333e+02
          1624   3,00915e+02   1,62400e+03  -8,65684e-01   7,48792e+01   3,00667e+02
          1632   3,02265e+02   1,63200e+03  -8,66381e-01   7,48179e+01   3,02000e+02
          1640   3,03621e+02   1,64000e+03  -8,64395e-01   7,47743e+01   3,03333e+02
          1648   3,04960e+02   1,64800e+03  -8,63214e-01   7,47117e+01   3,04667e+02
          1656   3,06322e+02   1,65600e+03  -8,70879e-01   7,46550e+01   3,06000e+02
          1664   3,07676e+02   1,66400e+03  -8,73786e-01   7,45964e+01   3,07333e+02
          1672   3,09034e+02   1,67200e+03  -8,73418e-01   7,45470e+01   3,08667e+02
          1680   3,10375e+02   1,68000e+03  -8,72331e-01   7,44831e+01   3,10000e+02
          1688   3,11736e+02   1,68800e+03  -8,74602e-01   7,44352e+01   3,11333e+02
          1696   3,13091e+02   1,69600e+03  -8,75616e-01   7,43862e+01   3,12667e+02
          1704   3,14451e+02   1,70400e+03  -8,79931e-01   7,43296e+01   3,14000e+02
          1712   3,15796e+02   1,71200e+03  -8,85628e-01   7,42836e+01   3,15333e+02
          1720   3,17145e+02   1,72000e+03  -8,86008e-01   7,42307e+01   3,16667e+02
          1728   3,18495e+02   1,72800e+03  -8,75855e-01   7,41717e+01   3,18000e+02
          1736   3,19842e+02   1,73600e+03  -8,67348e-01   7,41242e+01   3,19333e+02
          1744   3,21210e+02   1,74400e+03  -8,61759e-01   7,40617e+01   3,20667e+02
          1752   3,22555e+02   1,75200e+03  -8,53195e-01   7,39976e+01   3,22000e+02
          1760   3,23906e+02   1,76000e+03  -8,44953e-01   7,39472e+01   3,23333e+02
          1768   3,25257e+02   1,76800e+03  -8,34431e-01   7,38896e+01   3,24667e+02
          1776   3,26622e+02   1,77600e+03  -8,26882e-01   7,38320e+01   3,26000e+02
          1784   3,27966e+02   1,78400e+03  -8,25079e-01   7,37843e+01   3,27333e+02
          1792   3,29319e+02   1,79200e+03  -8,25279e-01   7,37262e+01   3,28667e+02
          1800   3,30661e+02   1,80000e+03  -8,15326e-01   7,36816e+01   3,30000e+02
          1808   3,32019e+02   1,80800e+03  -8,06277e-01   7,36219e+01   3,31333e+02
          1816   3,33369e+02   1,81600e+03  -8,03087e-01   7,35618e+01   3,32667e+02
          1824   3,34725e+02   1,82400e+03  -7,98520e-01   7,35168e+01   3,34000e+02
          1832   3,36065e+02   1,83200e+03  -7,96302e-01   7,34655e+01   3,35333e+02
          1840   3,37417e+02   1,84000e+03  -7,98625e-01   7,34051e+01   3,36667e+02
          1848   3,38768e+02   1,84800e+03  -7,95381e-01   7,33566e+01   3,38000e+02
          1856   3,40121e+02   1,85600e+03  -7,92255e-01   7,32967e+01   3,39333e+02
          1864   3,41471e+02   1,86400e+03  -7,81077e-01   7,32425e+01   3,40667e+02
          1872   3,42826e+02   1,87200e+03  -7,75749e-01   7,31969e+01   3,42000e+02
          1880   3,44175e+02   1,88000e+03  -7,71488e-01   7,31438e+01   3,43333e+02
          1888   3,45521e+02   1,88800e+03  -7,64006e-01   7,30867e+01   3,44667e+02
          1896   3,46879e+02   1,89600e+03  -7,55208e-01   7,30244e+01   3,46000e+02
          1904   3,48234e+02   1,90400e+03  -7,51907e-01   7,29666e+01   3,47333e+02
          1912   3,49573e+02   1,91200e+03  -7,49177e-01   7,29081e+01   3,48667e+02
          1920   3,50916e+02   1,92000e+03  -7,38056e-01   7,28572e+01   3,50000e+02
          1928   3,52271e+02   1,92800e+03  -7,25105e-01   7,27990e+01   3,51333e+02
          1936   3,53614e+02   1,93600e+03  -7,09432e-01   7,27376e+01   3,52667e+02
          1944   3,54978e+02   1,94400e+03  -7,01922e-01   7,26749e+01   3,54000e+02
          1952   3,56316e+02   1,95200e+03  -7,04524e-01   7,26161e+01   3,55333e+02
          1960   3,57659e+02   1,96000e+03  -7,03942e-01   7,25585e+01   3,56667e+02
          1968   3,59012e+02   1,96800e+03  -6,96046e-01   7,25005e+01   3,58000e+02
          1976   3,60365e+02   1,97600e+03  -6,84484e-01   7,24425e+01   3,59333e+02
          1984   3,61714e+02   1,98400e+03  -6,66527e-01   7,23792e+01   3,60667e+02
          1992   3,63057e+02   1,99200e+03  -6,55205e-01   7,23178e+01   3,62000e+02
          2000   3,64404e+02   2,00000e+03  -6,53673e-01   7,22550e+01   3,63333e+02
          2008   3,65755e+02   2,00800e+03  -6,53219e-01   7,22024e+01   3,64667e+02
          2016   3,67102e+02   2,01600e+03  -6,56447e-01   7,21384e+01   3,66000e+02
          2024   3,68458e+02   2,02400e+03  -6,50604e-01   7,20741e+01   3,67333e+02
          2032   3,69807e+02   2,03200e+03  -6,41583e-01   7,20118e+01   3,68667e+02
          2040   3,71153e+02   2,04000e+03  -6,33688e-01   7,19566e+01   3,70000e+02
          2048   3,72502e+02   2,04800e+03  -6,25917e-01   7,18979e+01   3,71333e+02
          2056   3,73855e+02   2,05600e+03  -6,18259e-01   7,18375e+01   3,72667e+02
          2064   3,75212e+02   2,06400e+03  -6,07388e-01   7,17774e+01   3,74000e+02
          2072   3,76559e+02   2,07200e+03  -6,01982e-01   7,17280e+01   3,75333e+02
          2080   3,77913e+02   2,08000e+03  -5,88256e-01   7,16750e+01   3,76667e+02
          2088   3,79257e+02   2,08800e+03  -5,78673e-01   7,16053e+01   3,78000e+02
          2096   3,80602e+02   2,09600e+03  -5,69856e-01   7,15387e+01   3,79333e+02
          2104   3,81954e+02   2,10400e+03  -5,61926e-01   7,14739e+01   3,80667e+02
          2112   3,83302e+02   2,11200e+03  -5,49491e-01   7,14307e+01   3,82000e+02
          2120   3,84648e+02   2,12000e+03  -5,27906e-01   7,13623e+01   3,83333e+02
          2128   3,86000e+02   2,12800e+03  -5,12484e-01   7,12891e+01   3,84667e+02
          2136   3,87349e+02   2,13600e+03  -5,07147e-01   7,12459e+01   3,86000e+02
          2144   3,88689e+02   2,14400e+03  -5,09389e-01   7,11847e+01   3,87333e+02
          2152   3,90032e+02   2,15200e+03  -4,95435e-01   7,11148e+01   3,88667e+02
          2160   3,91388e+02   2,16000e+03  -4,81537e-01   7,10621e+01   3,90000e+02
          2168   3,92738e+02   2,16800e+03  -4,69058e-01   7,10014e+01   3,91333e+02
          2176   3,94083e+02   2,17600e+03  -4,55881e-01   7,09367e+01   3,92667e+02
          2184   3,95431e+02   2,18400e+03  -4,36251e-01   7,08819e+01   3,94000e+02
          2192   3,96779e+02   2,19200e+03  -4,16680e-01   7,08077e+01   3,95333e+02
          2200   3,98121e+02   2,20000e+03  -4,07687e-01   7,07372e+01   3,96667e+02
          2208   3,99466e+02   2,20800e+03  -3,92046e-01   7,06788e+01   3,98000e+02
          2216   4,00814e+02   2,21600e+03  -3,77647e-01   7,06184e+01   3,99333e+02
          2224   4,02168e+02   2,22400e+03  -3,65311e-01   7,05535e+01   4,00667e+02
          2232   4,03511e+02   2,23200e+03  -3,59319e-01   7,04937e+01   4,02000e+02
          2240   4,04860e+02   2,24000e+03  -3,53670e-01   7,04442e+01   4,03333e+02
          2248   4,06215e+02   2,24800e+03  -3,43212e-01   7,03721e+01   4,04667e+02
          2256   4,07561e+02   2,25600e+03  -3,26918e-01   7,03081e+01   4,06000e+02
          2264   4,08901e+02   2,26400e+03  -3,15837e-01   7,02400e+01   4,07333e+02
          2272   4,10248e+02   2,27200e+03  -3,01266e-01   7,01784e+01   4,08667e+02
          2280   4,11592e+02   2,28000e+03  -2,89532e-01   7,01089e+01   4,10000e+02
          2288   4,12938e+02   2,28800e+03  -2,76499e-01   7,00328e+01   4,11333e+02
          2296   4,14285e+02   2,29600e+03  -2,73407e-01   6,99709e+01   4,12667e+02
          2304   4,15633e+02   2,30400e+03  -2,67771e-01   6,99075e+01   4,14000e+02
          2312   4,16985e+02   2,31200e+03  -2,64107e-01   6,98416e+01   4,15333e+02
          2320   4,18316e+02   2,32000e+03  -2,53566e-01   6,97683e+01   4,16667e+02
          2328   4,19669e+02   2,32800e+03  -2,43404e-01   6,97008e+01   4,18000e+02
          2336   4,21011e+02   2,33600e+03  -2,31859e-01   6,96337e+01   4,19333e+02
          2344   4,22346e+02   2,34400e+03  -2,16202e-01   6,95553e+01   4,20667e+02
          2352   4,23690e+02   2,35200e+03  -1,99439e-01   6,94788e+01   4,22000e+02
          2360   4,25035e+02   2,36000e+03  -1,90126e-01   6,94055e+01   4,23333e+02
          2368   4,26385e+02   2,36800e+03  -1,84331e-01   6,93244e+01   4,24667e+02
          2376   4,27717e+02   2,37600e+03  -1,76422e-01   6,92521e+01   4,26000e+02
          2384   4,29070e+02   2,38400e+03  -1,66305e-01   6,91771e+01   4,27333e+02
          2392   4,30412e+02   2,39200e+03  -1,60678e-01   6,90968e+01   4,28667e+02
          2400   4,31772e+02   2,40000e+03  -1,54281e-01   6,90034e+01   4,30000e+02
          2408   4,33104e+02   2,40800e+03  -1,46823e-01   6,89313e+01   4,31333e+02
          2416   4,34444e+02   2,41600e+03  -1,42353e-01   6,88470e+01   4,32667e+02
          2424   4,35780e+02   2,42400e+03  -1,35890e-01   6,87766e+01   4,34000e+02
          2432   4,37132e+02   2,43200e+03  -1,28180e-01   6,86911e+01   4,35333e+02
          2440   4,38476e+02   2,44000e+03  -1,12177e-01   6,86038e+01   4,36667e+02
          2448   4,39811e+02   2,44800e+03  -1,03542e-01   6,85191e+01   4,38000e+02
          2456   4,41152e+02   2,45600e+03  -9,51611e-02   6,84276e+01   4,39333e+02
          2464   4,42499e+02   2,46400e+03  -8,60837e-02   6,83311e+01   4,40667e+02
          2472   4,43829e+02   2,47200e+03  -8,64471e-02   6,82420e+01   4,42000e+02
          2480   4,45174e+02   2,48000e+03  -9,23037e-02   6,81397e+01   4,43333e+02
          2488   4,46513e+02   2,48800e+03  -8,94125e-02   6,80406e+01   4,44667e+02
          2496   4,47865e+02   2,49600e+03  -8,81182e-02   6,79620e+01   4,46000e+02
          2504   4,49203e+02   2,50400e+03  -8,17540e-02   6,78622e+01   4,47333e+02
          2512   4,50541e+02   2,51200e+03  -7,67809e-02   6,77635e+01   4,48667e+02
          2520   4,51883e+02   2,52000e+03  -7,30827e-02   6,76516e+01   4,50000e+02
          2528   4,53223e+02   2,52800e+03  -8,29180e-02   6,75371e+01   4,51333e+02
          2536   4,54567e+02   2,53600e+03  -8,70476e-02   6,74499e+01   4,52667e+02
          2544   4,55910e+02   2,54400e+03  -9,15803e-02   6,73385e+01   4,54000e+02
          2552   4,57265e+02   2,55200e+03  -9,57392e-02   6,72164e+01   4,55333e+02
          2560   4,58600e+02   2,56000e+03  -1,05510e-01   6,70972e+01   4,56667e+02
          2568   4,59937e+02   2,56800e+03  -1,12634e-01   6,69861e+01   4,58000e+02
          2576   4,61287e+02   2,57600e+03  -1,17915e-01   6,68642e+01   4,59333e+02
          2584   4,62623e+02   2,58400e+03  -1,27332e-01   6,67508e+01   4,60667e+02
          2592   4,63963e+02   2,59200e+03  -1,35311e-01   6,66308e+01   4,62000e+02
          2600   4,65308e+02   2,60000e+03  -1,36508e-01   6,64989e+01   4,63333e+02
          2608   4,66648e+02   2,60800e+03  -1,36880e-01   6,63698e+01   4,64667e+02
          2616   4,67990e+02   2,61600e+03  -1,41807e-01   6,62275e+01   4,66000e+02
          2624   4,69328e+02   2,62400e+03  -1,59238e-01   6,60921e+01   4,67333e+02
          2632   4,70680e+02   2,63200e+03  -1,69395e-01   6,59514e+01   4,68667e+02
          2640   4,72020e+02   2,64000e+03  -1,79119e-01   6,58065e+01   4,70000e+02
          2648   4,73362e+02   2,64800e+03  -1,93283e-01   6,56646e+01   4,71333e+02
          2656   4,74688e+02   2,65600e+03  -2,04012e-01   6,55069e+01   4,72667e+02
          2664   4,76038e+02   2,66400e+03  -2,14818e-01   6,53332e+01   4,74000e+02
          2672   4,77377e+02   2,67200e+03  -2,28031e-01   6,51802e+01   4,75333e+02
          2680   4,78720e+02   2,68000e+03  -2,45211e-01   6,50101e+01   4,76667e+02
          2688   4,80065e+02   2,68800e+03  -2,63226e-01   6,48546e+01   4,78000e+02
          2696   4,81411e+02   2,69600e+03  -2,95035e-01   6,46894e+01   4,79333e+02
          2704   4,82752e+02   2,70400e+03  -3,16849e-01   6,45022e+01   4,80667e+02
          2712   4,84097e+02   2,71200e+03  -3,33791e-01   6,43243e+01   4,82000e+02
          2720   4,85427e+02   2,72000e+03  -3,51786e-01   6,41424e+01   4,83333e+02
          2728   4,86782e+02   2,72800e+03  -3,76079e-01   6,39485e+01   4,84667e+02
          2736   4,88118e+02   2,73600e+03  -4,08096e-01   6,37532e+01   4,86000e+02
          2744   4,89452e+02   2,74400e+03  -4,56711e-01   6,35432e+01   4,87333e+02
          2752   4,90798e+02   2,75200e+03  -4,92290e-01   6,33428e+01   4,88667e+02
          2760   4,92138e+02   2,76000e+03  -5,21440e-01   6,31307e+01   4,90000e+02
          2768   4,93478e+02   2,76800e+03  -5,67995e-01   6,29084e+01   4,91333e+02
          2776   4,94825e+02   2,77600e+03  -6,16827e-01   6,26940e+01   4,92667e+02
          2784   4,96164e+02   2,78400e+03  -6,51772e-01   6,24739e+01   4,94000e+02
          2792   4,97499e+02   2,79200e+03  -6,94998e-01   6,22273e+01   4,95333e+02
          2800   4,98852e+02   2,80000e+03  -7,44186e-01   6,19743e+01   4,96667e+02
          2808   5,00193e+02   2,80800e+03  -7,95764e-01   6,17232e+01   4,98000e+02
          2816   5,01531e+02   2,81600e+03  -8,47771e-01   6,14604e+01   4,99333e+02
          2824   5,02870e+02   2,82400e+03  -8,96215e-01   6,11922e+01   5,00667e+02
          2832   5,04217e+02   2,83200e+03  -9,53431e-01   6,09124e+01   5,02000e+02
          2840   5,05560e+02   2,84000e+03  -1,01065e+00   6,06288e+01   5,03333e+02
          2848   5,06910e+02   2,84800e+03  -1,06017e+00   6,03498e+01   5,04667e+02
          2856   5,08259e+02   2,85600e+03  -1,10752e+00   6,00522e+01   5,06000e+02
          2864   5,09586e+02   2,86400e+03  -1,15573e+00   5,97619e+01   5,07333e+02
          2872   5,10936e+02   2,87200e+03  -1,21645e+00   5,94453e+01   5,08667e+02
          2880   5,12277e+02   2,88000e+03  -1,26842e+00   5,91228e+01   5,10000e+02
          2888   5,13619e+02   2,88800e+03  -1,31699e+00   5,87983e+01   5,11333e+02
          2896   5,14971e+02   2,89600e+03  -1,35087e+00   5,84668e+01   5,12667e+02
          2904   5,16313e+02   2,90400e+03  -1,37836e+00   5,81370e+01   5,14000e+02
          2912   5,17664e+02   2,91200e+03  -1,40455e+00   5,78000e+01   5,15333e+02
          2920   5,19004e+02   2,92000e+03  -1,42194e+00   5,74674e+01   5,16667e+02
          2928   5,20348e+02   2,92800e+03  -1,43565e+00   5,71154e+01   5,18000e+02
          2936   5,21692e+02   2,93600e+03  -1,44191e+00   5,67678e+01   5,19333e+02
          2944   5,23032e+02   2,94400e+03  -1,44399e+00   5,64206e+01   5,20667e+02
          2952   5,24377e+02   2,95200e+03  -1,44174e+00   5,60558e+01   5,22000e+02
          2960   5,25731e+02   2,96000e+03  -1,45026e+00   5,56884e+01   5,23333e+02
          2968   5,27080e+02   2,96800e+03  -1,46108e+00   5,53265e+01   5,24667e+02
          2976   5,28423e+02   2,97600e+03  -1,45669e+00   5,49498e+01   5,26000e+02
          2984   5,29765e+02   2,98400e+03  -1,43338e+00   5,45786e+01   5,27333e+02
          2992   5,31116e+02   2,99200e+03  -1,40583e+00   5,42232e+01   5,28667e+02
          3000   5,32458e+02   3,00000e+03  -1,38458e+00   5,38538e+01   5,30000e+02
          3008   5,33812e+02   3,00800e+03  -1,36687e+00   5,34512e+01   5,31333e+02
          3016   5,35159e+02   3,01600e+03  -1,35306e+00   5,30851e+01   5,32667e+02
          3024   5,36501e+02   3,02400e+03  -1,34270e+00   5,27256e+01   5,34000e+02
          3032   5,37844e+02   3,03200e+03  -1,32938e+00   5,23409e+01   5,35333e+02
          3040   5,39189e+02   3,04000e+03  -1,32460e+00   5,19563e+01   5,36667e+02
          3048   5,40538e+02   3,04800e+03  -1,32102e+00   5,15768e+01   5,38000e+02
          3056   5,41892e+02   3,05600e+03  -1,32113e+00   5,11974e+01   5,39333e+02
          3064   5,43240e+02   3,06400e+03  -1,32184e+00   5,08073e+01   5,40667e+02
          3072   5,44588e+02   3,07200e+03  -1,31641e+00   5,04153e+01   5,42000e+02
          3080   5,45931e+02   3,08000e+03  -1,30174e+00   5,00090e+01   5,43333e+02
          3088   5,47281e+02   3,08800e+03  -1,27758e+00   4,96107e+01   5,44667e+02
          3096   5,48625e+02   3,09600e+03  -1,25524e+00   4,92196e+01   5,46000e+02
          3104   5,49960e+02   3,10400e+03  -1,23607e+00   4,88240e+01   5,47333e+02
          3112   5,51312e+02   3,11200e+03  -1,21235e+00   4,84332e+01   5,48667e+02
          3120   5,52662e+02   3,12000e+03  -1,16976e+00   4,80366e+01   5,50000e+02
          3128   5,54021e+02   3,12800e+03  -1,12089e+00   4,76412e+01   5,51333e+02
          3136   5,55344e+02   3,13600e+03  -1,07807e+00   4,72484e+01   5,52667e+02
          3144   5,56708e+02   3,14400e+03  -1,02087e+00   4,68505e+01   5,54000e+02
          3152   5,58055e+02   3,15200e+03  -9,61634e-01   4,64633e+01   5,55333e+02
          3160   5,59393e+02   3,16000e+03  -8,96924e-01   4,60689e+01   5,56667e+02
          3168   5,60753e+02   3,16800e+03  -8,24160e-01   4,56897e+01   5,58000e+02
          3176   5,62094e+02   3,17600e+03  -7,35300e-01   4,53056e+01   5,59333e+02
          3184   5,63439e+02   3,18400e+03  -6,41905e-01   4,49403e+01   5,60667e+02
          3192   5,64783e+02   3,19200e+03  -5,45363e-01   4,45713e+01   5,62000e+02
          3200   5,66135e+02   3,20000e+03  -4,39959e-01   4,42000e+01   5,63333e+02
          3208   5,67487e+02   3,20800e+03  -3,35698e-01   4,38456e+01   5,64667e+02
          3216   5,68828e+02   3,21600e+03  -2,36688e-01   4,34950e+01   5,66000e+02
          3224   5,70173e+02   3,22400e+03  -1,23737e-01   4,31560e+01   5,67333e+02
          3232   5,71523e+02   3,23200e+03   3,57028e-03   4,28205e+01   5,68667e+02
          3240   5,72868e+02   3,24000e+03   1,46754e-01   4,24936e+01   5,70000e+02
          3248   5,74222e+02   3,24800e+03   3,02514e-01   4,21728e+01   5,71333e+02
          3256   5,75580e+02   3,25600e+03   4,50158e-01   4,18488e+01   5,72667e+02
          3264   5,76920e+02   3,26400e+03   5,97759e-01   4,15437e+01   5,74000e+02
          3272   5,78278e+02   3,27200e+03   7,50265e-01   4,12625e+01   5,75333e+02
          3280   5,79620e+02   3,28000e+03   9,11063e-01   4,09785e+01   5,76667e+02
          3288   5,80965e+02   3,28800e+03   1,06548e+00   4,07076e+01   5,78000e+02
          3296   5,82302e+02   3,29600e+03   1,21862e+00   4,04357e+01   5,79333e+02
          3304   5,83648e+02   3,30400e+03   1,36450e+00   4,01826e+01   5,80667e+02
          3312   5,84992e+02   3,31200e+03   1,52431e+00   3,99218e+01   5,82000e+02
          3320   5,86349e+02   3,32000e+03   1,66871e+00   3,96860e+01   5,83333e+02
          3328   5,87693e+02   3,32800e+03   1,80149e+00   3,94503e+01   5,84667e+02
          3336   5,89037e+02   3,33600e+03   1,91721e+00   3,92178e+01   5,86000e+02
          3344   5,90391e+02   3,34400e+03   2,03561e+00   3,89920e+01   5,87333e+02
          3352   5,91740e+02   3,35200e+03   2,14951e+00   3,87747e+01   5,88667e+02
          3360   5,93077e+02   3,36000e+03   2,26567e+00   3,85550e+01   5,90000e+02
          3368   5,94427e+02   3,36800e+03   2,37490e+00   3,83515e+01   5,91333e+02
          3376   5,95777e+02   3,37600e+03   2,46559e+00   3,81369e+01   5,92667e+02
          3384   5,97128e+02   3,38400e+03   2,55158e+00   3,79317e+01   5,94000e+02
          3392   5,98469e+02   3,39200e+03   2,64361e+00   3,77207e+01   5,95333e+02
          3400   5,99815e+02   3,40000e+03   2,72274e+00   3,75282e+01   5,96667e+02
          3408   6,01162e+02   3,40800e+03   2,79706e+00   3,73318e+01   5,98000e+02
          3416   6,02503e+02   3,41600e+03   2,86326e+00   3,71340e+01   5,99333e+02
          3424   6,03845e+02   3,42400e+03   2,92854e+00   3,69284e+01   6,00667e+02
          3432   6,05193e+02   3,43200e+03   2,99175e+00   3,67367e+01   6,02000e+02
          3440   6,06540e+02   3,44000e+03   3,05224e+00   3,65348e+01   6,03333e+02
          3448   6,07876e+02   3,44800e+03   3,11599e+00   3,63475e+01   6,04667e+02
          3456   6,09228e+02   3,45600e+03   3,17300e+00   3,61483e+01   6,06000e+02
          3464   6,10567e+02   3,46400e+03   3,22353e+00   3,59561e+01   6,07333e+02
          3472   6,11916e+02   3,47200e+03   3,27550e+00   3,57632e+01   6,08667e+02
          3480   6,13251e+02   3,48000e+03   3,32834e+00   3,55697e+01   6,10000e+02
          3488   6,14603e+02   3,48800e+03   3,38842e+00   3,53657e+01   6,11333e+02
          3496   6,15958e+02   3,49600e+03   3,45821e+00   3,51735e+01   6,12667e+02
          3504   6,17312e+02   3,50400e+03   3,49958e+00   3,49689e+01   6,14000e+02
          3512   6,18649e+02   3,51200e+03   3,54190e+00   3,47857e+01   6,15333e+02
          3520   6,19997e+02   3,52000e+03   3,58551e+00   3,46010e+01   6,16667e+02
          3528   6,21335e+02   3,52800e+03   3,63097e+00   3,43967e+01   6,18000e+02
          3536   6,22684e+02   3,53600e+03   3,67812e+00   3,41864e+01   6,19333e+02
          3544   6,24045e+02   3,54400e+03   3,72470e+00   3,40011e+01   6,20667e+02
          3552   6,25387e+02   3,55200e+03   3,77429e+00   3,38018e+01   6,22000e+02
          3560   6,26741e+02   3,56000e+03   3,82508e+00   3,36079e+01   6,23333e+02
          3568   6,28077e+02   3,56800e+03   3,87390e+00   3,34056e+01   6,24667e+02
          3576   6,29418e+02   3,57600e+03   3,92958e+00   3,32114e+01   6,26000e+02
          3584   6,30767e+02   3,58400e+03   3,97136e+00   3,30270e+01   6,27333e+02
          3592   6,32114e+02   3,59200e+03   4,00783e+00   3,28171e+01   6,28667e+02
          3600   6,33460e+02   3,60000e+03   4,03866e+00   3,26117e+01   6,30000e+02
          3608   6,34801e+02   3,60800e+03   4,07804e+00   3,24234e+01   6,31333e+02
          3616   6,36150e+02   3,61600e+03   4,11293e+00   3,22340e+01   6,32667e+02
          3624   6,37490e+02   3,62400e+03   4,13153e+00   3,20204e+01   6,34000e+02
          3632   6,38842e+02   3,63200e+03   4,15444e+00   3,18251e+01   6,35333e+02
          3640   6,40191e+02   3,64000e+03   4,17751e+00   3,16124e+01   6,36667e+02
          3648   6,41534e+02   3,64800e+03   4,19592e+00   3,14110e+01   6,38000e+02
          3656   6,42887e+02   3,65600e+03   4,20303e+00   3,12031e+01   6,39333e+02
          3664   6,44219e+02   3,66400e+03   4,21196e+00   3,09938e+01   6,40667e+02
          3672   6,45562e+02   3,67200e+03   4,21904e+00   3,07940e+01   6,42000e+02
          3680   6,46911e+02   3,68000e+03   4,22756e+00   3,05628e+01   6,43333e+02
          3688   6,48262e+02   3,68800e+03   4,22564e+00   3,03265e+01   6,44667e+02
          3696   6,49604e+02   3,69600e+03   4,20620e+00   3,00878e+01   6,46000e+02
          3704   6,50961e+02   3,70400e+03   4,18709e+00   2,98640e+01   6,47333e+02
          3712   6,52298e+02   3,71200e+03   4,18104e+00   2,96555e+01   6,48667e+02
          3720   6,53653e+02   3,72000e+03   4,16786e+00   2,94266e+01   6,50000e+02
          3728   6,54996e+02   3,72800e+03   4,13845e+00   2,91825e+01   6,51333e+02
          3736   6,56340e+02   3,73600e+03   4,10847e+00   2,89247e+01   6,52667e+02
          3744   6,57678e+02   3,74400e+03   4,08701e+00   2,86745e+01   6,54000e+02
          3752   6,59040e+02   3,75200e+03   4,05056e+00   2,84345e+01   6,55333e+02
          3760   6,60366e+02   3,76000e+03   4,01570e+00   2,81802e+01   6,56667e+02
          3768   6,61710e+02   3,76800e+03   3,98204e+00   2,79278e+01   6,58000e+02
          3776   6,63068e+02   3,77600e+03   3,93857e+00   2,76610e+01   6,59333e+02
          3784   6,64404e+02   3,78400e+03   3,88805e+00   2,73852e+01   6,60667e+02
          3792   6,65755e+02   3,79200e+03   3,83708e+00   2,70954e+01   6,62000e+02
          3800   6,67113e+02   3,80000e+03   3,78523e+00   2,68181e+01   6,63333e+02
          3808   6,68450e+02   3,80800e+03   3,72979e+00   2,65330e+01   6,64667e+02
          3816   6,69797e+02   3,81600e+03   3,67052e+00   2,62340e+01   6,66000e+02
          3824   6,71144e+02   3,82400e+03   3,59886e+00   2,59392e+01   6,67333e+02
          3832   6,72481e+02   3,83200e+03   3,52955e+00   2,56278e+01   6,68667e+02
          3840   6,73836e+02   3,84000e+03   3,46294e+00   2,53256e+01   6,70000e+02
          3848   6,75177e+02   3,84800e+03   3,38111e+00   2,50085e+01   6,71333e+02
          3856   6,76530e+02   3,85600e+03   3,30790e+00   2,46840e+01   6,72667e+02
          3864   6,77855e+02   3,86400e+03   3,23581e+00   2,43591e+01   6,74000e+02
          3872   6,79204e+02   3,87200e+03   3,15937e+00   2,40099e+01   6,75333e+02
          3880   6,80551e+02   3,88000e+03   3,06118e+00   2,36652e+01   6,76667e+02
          3888   6,81884e+02   3,88800e+03   2,97607e+00   2,33138e+01   6,78000e+02
          3896   6,83234e+02   3,89600e+03   2,90664e+00   2,29763e+01   6,79333e+02
          3904   6,84579e+02   3,90400e+03   2,84664e+00   2,26194e+01   6,80667e+02
          3912   6,85923e+02   3,91200e+03   2,78075e+00   2,22645e+01   6,82000e+02
          3920   6,87263e+02   3,92000e+03   2,72370e+00   2,18966e+01   6,83333e+02
          3928   6,88616e+02   3,92800e+03   2,66192e+00   2,15447e+01   6,84667e+02
          3936   6,89957e+02   3,93600e+03   2,61139e+00   2,12004e+01   6,86000e+02
          3944   6,91297e+02   3,94400e+03   2,57119e+00   2,08326e+01   6,87333e+02
          3952   6,92653e+02   3,95200e+03   2,53656e+00   2,04649e+01   6,88667e+02
          3960   6,94009e+02   3,96000e+03   2,52902e+00   2,01152e+01   6,90000e+02
          3968   6,95346e+02   3,96800e+03   2,52311e+00   1,97756e+01   6,91333e+02
          3976   6,96704e+02   3,97600e+03   2,52361e+00   1,94292e+01   6,92667e+02
          3984   6,98040e+02   3,98400e+03   2,52273e+00   1,90845e+01   6,94000e+02
          3992   6,99391e+02   3,99200e+03   2,53711e+00   1,87491e+01   6,95333e+02
          4000   7,00741e+02   4,00000e+03   2,55811e+00   1,84177e+01   6,96667e+02
          4008   7,02075e+02   4,00800e+03   2,58087e+00   1,81002e+01   6,98000e+02
          4016   7,03431e+02   4,01600e+03   2,60069e+00   1,77792e+01   6,99333e+02
          4024   7,04766e+02   4,02400e+03   2,64171e+00   1,74781e+01   7,00667e+02
          4032   7,06125e+02   4,03200e+03   2,68427e+00   1,71712e+01   7,02000e+02
          4040   7,07466e+02   4,04000e+03   2,71844e+00   1,68892e+01   7,03333e+02
          4048   7,08812e+02   4,04800e+03   2,76790e+00   1,66027e+01   7,04667e+02
          4056   7,10144e+02   4,05600e+03   2,81620e+00   1,63414e+01   7,06000e+02
          4064   7,11495e+02   4,06400e+03   2,86511e+00   1,60866e+01   7,07333e+02
          4072   7,12830e+02   4,07200e+03   2,90686e+00   1,58312e+01   7,08667e+02
          4080   7,14192e+02   4,08000e+03   2,95091e+00   1,55982e+01   7,10000e+02
          4088   7,15532e+02   4,08800e+03   2,98109e+00   1,53583e+01   7,11333e+02
          4096   7,16879e+02   4,09600e+03   3,01556e+00   1,51441e+01   7,12667e+02
          4104   7,18232e+02   4,10400e+03   3,06228e+00   1,49330e+01   7,14000e+02
          4112   7,19574e+02   4,11200e+03   3,10410e+00   1,47232e+01   7,15333e+02
          4120   7,20928e+02   4,12000e+03   3,14914e+00   1,45339e+01   7,16667e+02
          4128   7,22263e+02   4,12800e+03   3,17998e+00   1,43396e+01   7,18000e+02
          4136   7,23611e+02   4,13600e+03   3,21857e+00   1,41585e+01   7,19333e+02
          4144   7,24962e+02   4,14400e+03   3,26572e+00   1,39730e+01   7,20667e+02
          4152   7,26309e+02   4,15200e+03   3,29276e+00   1,38046e+01   7,22000e+02
          4160   7,27659e+02   4,16000e+03   3,31029e+00   1,36544e+01   7,23333e+02
          4168   7,28995e+02   4,16800e+03   3,32996e+00   1,34931e+01   7,24667e+02
          4176   7,30342e+02   4,17600e+03   3,35252e+00   1,33654e+01   7,26000e+02
          4184   7,31693e+02   4,18400e+03   3,37315e+00   1,32101e+01   7,27333e+02
          4192   7,33045e+02   4,19200e+03   3,38475e+00   1,30753e+01   7,28667e+02
          4200   7,34394e+02   4,20000e+03   3,39753e+00   1,29429e+01   7,30000e+02
          4208   7,35736e+02   4,20800e+03   3,40313e+00   1,28040e+01   7,31333e+02
          4216   7,37085e+02   4,21600e+03   3,41109e+00   1,26949e+01   7,32667e+02
          4224   7,38423e+02   4,22400e+03   3,41542e+00   1,25767e+01   7,34000e+02
          4232   7,39773e+02   4,23200e+03   3,40666e+00   1,24569e+01   7,35333e+02
          4240   7,41119e+02   4,24000e+03   3,39202e+00   1,23380e+01   7,36667e+02
          4248   7,42464e+02   4,24800e+03   3,39097e+00   1,22353e+01   7,38000e+02
          4256   7,43813e+02   4,25600e+03   3,39846e+00   1,21378e+01   7,39333e+02
          4264   7,45163e+02   4,26400e+03   3,39692e+00   1,20357e+01   7,40667e+02
          4272   7,46511e+02   4,27200e+03   3,39644e+00   1,19490e+01   7,42000e+02
          4280   7,47863e+02   4,28000e+03   3,38539e+00   1,18561e+01   7,43333e+02
          4288   7,49210e+02   4,28800e+03   3,36920e+00   1,17634e+01   7,44667e+02
          4296   7,50553e+02   4,29600e+03   3,36253e+00   1,16876e+01   7,46000e+02
          4304   7,51901e+02   4,30400e+03   3,36119e+00   1,15973e+01   7,47333e+02
          4312   7,53253e+02   4,31200e+03   3,36255e+00   1,15240e+01   7,48667e+02
          4320   7,54594e+02   4,32000e+03   3,35900e+00   1,14538e+01   7,50000e+02
          4328   7,55953e+02   4,32800e+03   3,36387e+00   1,13788e+01   7,51333e+02
          4336   7,57300e+02   4,33600e+03   3,35164e+00   1,13143e+01   7,52667e+02
          4344   7,58641e+02   4,34400e+03   3,33689e+00   1,12439e+01   7,54000e+02
          4352   7,59989e+02   4,35200e+03   3,32868e+00   1,11887e+01   7,55333e+02
          4360   7,61338e+02   4,36000e+03   3,31014e+00   1,11329e+01   7,56667e+02
          4368   7,62693e+02   4,36800e+03   3,28859e+00   1,10718e+01   7,58000e+02
          4376   7,64043e+02   4,37600e+03   3,27687e+00   1,10269e+01   7,59333e+02
          4384   7,65379e+02   4,38400e+03   3,27056e+00   1,09800e+01   7,60667e+02
          4392   7,66740e+02   4,39200e+03   3,26955e+00   1,09196e+01   7,62000e+02
          4400   7,68078e+02   4,40000e+03   3,26495e+00   1,08775e+01   7,63333e+02
          4408   7,69429e+02   4,40800e+03   3,25140e+00   1,08180e+01   7,64667e+02
          4416   7,70775e+02   4,41600e+03   3,23198e+00   1,08002e+01   7,66000e+02
          4424   7,72127e+02   4,42400e+03   3,21845e+00   1,07562e+01   7,67333e+02
          4432   7,73466e+02   4,43200e+03   3,20837e+00   1,07074e+01   7,68667e+02
          4440   7,74807e+02   4,44000e+03   3,18949e+00   1,06822e+01   7,70000e+02
          4448   7,76162e+02   4,44800e+03   3,17155e+00   1,06412e+01   7,71333e+02
          4456   7,77516e+02   4,45600e+03   3,15624e+00   1,05966e+01   7,72667e+02
          4464   7,78858e+02   4,46400e+03   3,14351e+00   1,05682e+01   7,74000e+02
          4472   7,80213e+02   4,47200e+03   3,12728e+00   1,05263e+01   7,75333e+02
          4480   7,81562e+02   4,48000e+03   3,10991e+00   1,05030e+01   7,76667e+02
          4488   7,82893e+02   4,48800e+03   3,08436e+00   1,04727e+01   7,78000e+02
          4496   7,84253e+02   4,49600e+03   3,05162e+00   1,04462e+01   7,79333e+02
          4504   7,85598e+02   4,50400e+03   3,04024e+00   1,04406e+01   7,80667e+02
          4512   7,86946e+02   4,51200e+03   3,02455e+00   1,04050e+01   7,82000e+02
          4520   7,88296e+02   4,52000e+03   3,00384e+00   1,03750e+01   7,83333e+02
          4528   7,89653e+02   4,52800e+03   2,99029e+00   1,03609e+01   7,84667e+02
          4536   7,91007e+02   4,53600e+03   2,98714e+00   1,03387e+01   7,86000e+02
          4544   7,92349e+02   4,54400e+03   2,97464e+00   1,03045e+01   7,87333e+02
          4552   7,93704e+02   4,55200e+03   2,96707e+00   1,02779e+01   7,88667e+02
          4560   7,95056e+02   4,56000e+03   2,96310e+00   1,02665e+01   7,90000e+02
          4568   7,96404e+02   4,56800e+03   2,95799e+00   1,02572e+01   7,91333e+02
          4576   7,97741e+02   4,57600e+03   2,95680e+00   1,02347e+01   7,92667e+02
          4584   7,99099e+02   4,58400e+03   2,93875e+00   1,02300e+01   7,94000e+02
          4592   8,00446e+02   4,59200e+03   2,93069e+00   1,02279e+01   7,95333e+02
          4600   8,01791e+02   4,60000e+03   2,93436e+00   1,02045e+01   7,96667e+02
          4608   8,03147e+02   4,60800e+03   2,92440e+00   1,01639e+01   7,98000e+02
          4616   8,04502e+02   4,61600e+03   2,91981e+00   1,01394e+01   7,99333e+02
          4620   8,05174e+02   4,62000e+03   2,93492e+00   1,01282e+01   8,00000e+02
!&20250825-01 TCNQ filled