File: Absorption_Analysis/TGA/20250826-01 P2 unfilled.txt
         Index            Ts             t            HF        Weight            Tr
           [#]          [°C]           [s]       [Wg^-1]           [%]          [°C]
             0   2,77714e+01   0,00000e+00  -2,11116e+00   9,99589e+01   3,00000e+01
             8   2,86104e+01   8,00000e+00  -2,00691e+00   9,96359e+01   3,13333e+01
            16   2,97783e+01   1,60000e+01  -1,89946e+00   9,94948e+01   3,26667e+01
            24   3,09931e+01   2,40000e+01  -1,78742e+00   9,92773e+01   3,40000e+01
            32   3,22534e+01   3,20000e+01  -1,67405e+00   9,90135e+01   3,53333e+01
            40   3,35190e+01   4,00000e+01  -1,56316e+00   9,87625e+01   3,66667e+01
            48   3,48031e+01   4,80000e+01  -1,45923e+00   9,85299e+01   3,80000e+01
            56   3,61328e+01   5,60000e+01  -1,36560e+00   9,83105e+01   3,93333e+01
            64   3,74453e+01   6,40000e+01  -1,27921e+00   9,81264e+01   4,06667e+01
            72   3,87761e+01   7,20000e+01  -1,20684e+00   9,79674e+01   4,20000e+01
            80   4,01247e+01   8,00000e+01  -1,14644e+00   9,78217e+01   4,33333e+01
            88   4,14602e+01   8,80000e+01  -1,09488e+00   9,76898e+01   4,46667e+01
            96   4,28126e+01   9,60000e+01  -1,04702e+00   9,75728e+01   4,60000e+01
           104   4,41848e+01   1,04000e+02  -9,98245e-01   9,74432e+01   4,73333e+01
           112   4,55507e+01   1,12000e+02  -9,50958e-01   9,72974e+01   4,86667e+01
           120   4,69115e+01   1,20000e+02  -9,08423e-01   9,71831e+01   5,00000e+01
           128   4,82921e+01   1,28000e+02  -8,68540e-01   9,70792e+01   5,13333e+01
           136   4,96428e+01   1,36000e+02  -8,35566e-01   9,69639e+01   5,26667e+01
           144   5,10295e+01   1,44000e+02  -8,01439e-01   9,68372e+01   5,40000e+01
           152   5,23901e+01   1,52000e+02  -7,68457e-01   9,67032e+01   5,53333e+01
           160   5,37447e+01   1,60000e+02  -7,38660e-01   9,65553e+01   5,66667e+01
           168   5,51121e+01   1,68000e+02  -7,08760e-01   9,64316e+01   5,80000e+01
           176   5,64697e+01   1,76000e+02  -6,80968e-01   9,63300e+01   5,93333e+01
           184   5,78449e+01   1,84000e+02  -6,55149e-01   9,62191e+01   6,06667e+01
           192   5,92038e+01   1,92000e+02  -6,31232e-01   9,60930e+01   6,20000e+01
           200   6,05558e+01   2,00000e+02  -6,08089e-01   9,59854e+01   6,33333e+01
           208   6,19303e+01   2,08000e+02  -5,84993e-01   9,58581e+01   6,46667e+01
           216   6,32676e+01   2,16000e+02  -5,65995e-01   9,57278e+01   6,60000e+01
           224   6,46314e+01   2,24000e+02  -5,50698e-01   9,56079e+01   6,73333e+01
           232   6,59902e+01   2,32000e+02  -5,35539e-01   9,54741e+01   6,86667e+01
           240   6,73276e+01   2,40000e+02  -5,15372e-01   9,53519e+01   7,00000e+01
           248   6,86997e+01   2,48000e+02  -4,98903e-01   9,52308e+01   7,13333e+01
           256   7,00458e+01   2,56000e+02  -4,89466e-01   9,51224e+01   7,26667e+01
           264   7,13837e+01   2,64000e+02  -4,79537e-01   9,50067e+01   7,40000e+01
           272   7,27381e+01   2,72000e+02  -4,68771e-01   9,48801e+01   7,53333e+01
           280   7,40811e+01   2,80000e+02  -4,60659e-01   9,47632e+01   7,66667e+01
           288   7,54217e+01   2,88000e+02  -4,53018e-01   9,46528e+01   7,80000e+01
           296   7,67867e+01   2,96000e+02  -4,42272e-01   9,45541e+01   7,93333e+01
           304   7,81267e+01   3,04000e+02  -4,33381e-01   9,44386e+01   8,06667e+01
           312   7,94658e+01   3,12000e+02  -4,26139e-01   9,43152e+01   8,20000e+01
           320   8,08011e+01   3,20000e+02  -4,16597e-01   9,42067e+01   8,33333e+01
           328   8,21399e+01   3,28000e+02  -4,11438e-01   9,40872e+01   8,46667e+01
           336   8,34944e+01   3,36000e+02  -4,07060e-01   9,39825e+01   8,60000e+01
           344   8,48310e+01   3,44000e+02  -4,03579e-01   9,38969e+01   8,73333e+01
           352   8,61692e+01   3,52000e+02  -4,01493e-01   9,38009e+01   8,86667e+01
           360   8,75174e+01   3,60000e+02  -4,04755e-01   9,37091e+01   9,00000e+01
           368   8,88465e+01   3,68000e+02  -4,06977e-01   9,36196e+01   9,13333e+01
           376   9,01803e+01   3,76000e+02  -4,01962e-01   9,35519e+01   9,26667e+01
           384   9,15230e+01   3,84000e+02  -4,01204e-01   9,34539e+01   9,40000e+01
           392   9,28597e+01   3,92000e+02  -3,98368e-01   9,33696e+01   9,53333e+01
           400   9,42040e+01   4,00000e+02  -3,93578e-01   9,32922e+01   9,66667e+01
           408   9,55514e+01   4,08000e+02  -3,91881e-01   9,32186e+01   9,80000e+01
           416   9,68822e+01   4,16000e+02  -3,92173e-01   9,31490e+01   9,93333e+01
           424   9,82203e+01   4,24000e+02  -3,93678e-01   9,30855e+01   1,00667e+02
           432   9,95666e+01   4,32000e+02  -3,94970e-01   9,30227e+01   1,02000e+02
           440   1,00906e+02   4,40000e+02  -3,95598e-01   9,29789e+01   1,03333e+02
           448   1,02244e+02   4,48000e+02  -3,99590e-01   9,29437e+01   1,04667e+02
           456   1,03581e+02   4,56000e+02  -4,04127e-01   9,28886e+01   1,06000e+02
           464   1,04939e+02   4,64000e+02  -4,01934e-01   9,28652e+01   1,07333e+02
           472   1,06272e+02   4,72000e+02  -4,06603e-01   9,28413e+01   1,08667e+02
           480   1,07605e+02   4,80000e+02  -4,10961e-01   9,28106e+01   1,10000e+02
           488   1,08941e+02   4,88000e+02  -4,09388e-01   9,27816e+01   1,11333e+02
           496   1,10294e+02   4,96000e+02  -3,97870e-01   9,27454e+01   1,12667e+02
           504   1,11631e+02   5,04000e+02  -3,88076e-01   9,27085e+01   1,14000e+02
           512   1,12966e+02   5,12000e+02  -3,72962e-01   9,26759e+01   1,15333e+02
           520   1,14321e+02   5,20000e+02  -3,57281e-01   9,26354e+01   1,16667e+02
           528   1,15662e+02   5,28000e+02  -3,45362e-01   9,25893e+01   1,18000e+02
           536   1,17003e+02   5,36000e+02  -3,36026e-01   9,25495e+01   1,19333e+02
           544   1,18345e+02   5,44000e+02  -3,31284e-01   9,25293e+01   1,20667e+02
           552   1,19684e+02   5,52000e+02  -3,31410e-01   9,25113e+01   1,22000e+02
           560   1,21012e+02   5,60000e+02  -3,35957e-01   9,24857e+01   1,23333e+02
           568   1,22366e+02   5,68000e+02  -3,44001e-01   9,24760e+01   1,24667e+02
           576   1,23721e+02   5,76000e+02  -3,56635e-01   9,24629e+01   1,26000e+02
           584   1,25070e+02   5,84000e+02  -3,64727e-01   9,24559e+01   1,27333e+02
           592   1,26406e+02   5,92000e+02  -3,75464e-01   9,24523e+01   1,28667e+02
           600   1,27742e+02   6,00000e+02  -3,91259e-01   9,24372e+01   1,30000e+02
           608   1,29089e+02   6,08000e+02  -4,03199e-01   9,24271e+01   1,31333e+02
           616   1,30445e+02   6,16000e+02  -4,14932e-01   9,24346e+01   1,32667e+02
           624   1,31779e+02   6,24000e+02  -4,26913e-01   9,24326e+01   1,34000e+02
           632   1,33131e+02   6,32000e+02  -4,37223e-01   9,24288e+01   1,35333e+02
           640   1,34471e+02   6,40000e+02  -4,51085e-01   9,24107e+01   1,36667e+02
           648   1,35824e+02   6,48000e+02  -4,65799e-01   9,24028e+01   1,38000e+02
           656   1,37179e+02   6,56000e+02  -4,80518e-01   9,23921e+01   1,39333e+02
           664   1,38526e+02   6,64000e+02  -4,95620e-01   9,23894e+01   1,40667e+02
           672   1,39875e+02   6,72000e+02  -5,10134e-01   9,23964e+01   1,42000e+02
           680   1,41220e+02   6,80000e+02  -5,26160e-01   9,23870e+01   1,43333e+02
           688   1,42582e+02   6,88000e+02  -5,38855e-01   9,23666e+01   1,44667e+02
           696   1,43912e+02   6,96000e+02  -5,54460e-01   9,23539e+01   1,46000e+02
           704   1,45274e+02   7,04000e+02  -5,66020e-01   9,23429e+01   1,47333e+02
           712   1,46609e+02   7,12000e+02  -5,73727e-01   9,23451e+01   1,48667e+02
           720   1,47962e+02   7,20000e+02  -5,81613e-01   9,23368e+01   1,50000e+02
           728   1,49315e+02   7,28000e+02  -5,85746e-01   9,23072e+01   1,51333e+02
           736   1,50661e+02   7,36000e+02  -5,93108e-01   9,22791e+01   1,52667e+02
           744   1,52008e+02   7,44000e+02  -6,01628e-01   9,22780e+01   1,54000e+02
           752   1,53362e+02   7,52000e+02  -6,11665e-01   9,22625e+01   1,55333e+02
           760   1,54705e+02   7,60000e+02  -6,22295e-01   9,22601e+01   1,56667e+02
           768   1,56069e+02   7,68000e+02  -6,32135e-01   9,22610e+01   1,58000e+02
           776   1,57411e+02   7,76000e+02  -6,44279e-01   9,22480e+01   1,59333e+02
           784   1,58765e+02   7,84000e+02  -6,51294e-01   9,22282e+01   1,60667e+02
           792   1,60124e+02   7,92000e+02  -6,55405e-01   9,22113e+01   1,62000e+02
           800   1,61476e+02   8,00000e+02  -6,61795e-01   9,21978e+01   1,63333e+02
           808   1,62836e+02   8,08000e+02  -6,65793e-01   9,21827e+01   1,64667e+02
           816   1,64176e+02   8,16000e+02  -6,66580e-01   9,21648e+01   1,66000e+02
           824   1,65534e+02   8,24000e+02  -6,73208e-01   9,21517e+01   1,67333e+02
           832   1,66883e+02   8,32000e+02  -6,82915e-01   9,21424e+01   1,68667e+02
           840   1,68233e+02   8,40000e+02  -6,92274e-01   9,21183e+01   1,70000e+02
           848   1,69589e+02   8,48000e+02  -6,97576e-01   9,21035e+01   1,71333e+02
           856   1,70952e+02   8,56000e+02  -7,01574e-01   9,20943e+01   1,72667e+02
           864   1,72290e+02   8,64000e+02  -7,08888e-01   9,20785e+01   1,74000e+02
           872   1,73639e+02   8,72000e+02  -7,14567e-01   9,20537e+01   1,75333e+02
           880   1,74990e+02   8,80000e+02  -7,18867e-01   9,20187e+01   1,76667e+02
           888   1,76348e+02   8,88000e+02  -7,23693e-01   9,20001e+01   1,78000e+02
           896   1,77704e+02   8,96000e+02  -7,26132e-01   9,19682e+01   1,79333e+02
           904   1,79054e+02   9,04000e+02  -7,32000e-01   9,19604e+01   1,80667e+02
           912   1,80411e+02   9,12000e+02  -7,41414e-01   9,19483e+01   1,82000e+02
           920   1,81759e+02   9,20000e+02  -7,50852e-01   9,19347e+01   1,83333e+02
           928   1,83113e+02   9,28000e+02  -7,58119e-01   9,19151e+01   1,84667e+02
           936   1,84458e+02   9,36000e+02  -7,63194e-01   9,18839e+01   1,86000e+02
           944   1,85818e+02   9,44000e+02  -7,70583e-01   9,18493e+01   1,87333e+02
           952   1,87169e+02   9,52000e+02  -7,73490e-01   9,18285e+01   1,88667e+02
           960   1,88519e+02   9,60000e+02  -7,73932e-01   9,17850e+01   1,90000e+02
           968   1,89870e+02   9,68000e+02  -7,72922e-01   9,17450e+01   1,91333e+02
           976   1,91234e+02   9,76000e+02  -7,74015e-01   9,17297e+01   1,92667e+02
           984   1,92595e+02   9,84000e+02  -7,80583e-01   9,16975e+01   1,94000e+02
           992   1,93938e+02   9,92000e+02  -7,86860e-01   9,16833e+01   1,95333e+02
          1000   1,95288e+02   1,00000e+03  -7,92596e-01   9,16488e+01   1,96667e+02
          1008   1,96650e+02   1,00800e+03  -7,97238e-01   9,16090e+01   1,98000e+02
          1016   1,98006e+02   1,01600e+03  -8,00809e-01   9,15706e+01   1,99333e+02
          1024   1,99362e+02   1,02400e+03  -8,05388e-01   9,15412e+01   2,00667e+02
          1032   2,00722e+02   1,03200e+03  -8,07271e-01   9,15230e+01   2,02000e+02
          1040   2,02075e+02   1,04000e+03  -8,10075e-01   9,14835e+01   2,03333e+02
          1048   2,03417e+02   1,04800e+03  -8,09813e-01   9,14462e+01   2,04667e+02
          1056   2,04776e+02   1,05600e+03  -8,11544e-01   9,14286e+01   2,06000e+02
          1064   2,06154e+02   1,06400e+03  -8,17346e-01   9,13960e+01   2,07333e+02
          1072   2,07493e+02   1,07200e+03  -8,28095e-01   9,13601e+01   2,08667e+02
          1080   2,08842e+02   1,08000e+03  -8,32692e-01   9,13255e+01   2,10000e+02
          1088   2,10203e+02   1,08800e+03  -8,30821e-01   9,12909e+01   2,11333e+02
          1096   2,11560e+02   1,09600e+03  -8,26842e-01   9,12574e+01   2,12667e+02
          1104   2,12919e+02   1,10400e+03  -8,27649e-01   9,12199e+01   2,14000e+02
          1112   2,14261e+02   1,11200e+03  -8,35720e-01   9,11807e+01   2,15333e+02
          1120   2,15622e+02   1,12000e+03  -8,40534e-01   9,11445e+01   2,16667e+02
          1128   2,16970e+02   1,12800e+03  -8,39183e-01   9,11261e+01   2,18000e+02
          1136   2,18340e+02   1,13600e+03  -8,39019e-01   9,10915e+01   2,19333e+02
          1144   2,19688e+02   1,14400e+03  -8,37305e-01   9,10703e+01   2,20667e+02
          1152   2,21053e+02   1,15200e+03  -8,35633e-01   9,10638e+01   2,22000e+02
          1160   2,22399e+02   1,16000e+03  -8,35080e-01   9,10286e+01   2,23333e+02
          1168   2,23760e+02   1,16800e+03  -8,31962e-01   9,09901e+01   2,24667e+02
          1176   2,25095e+02   1,17600e+03  -8,27836e-01   9,09549e+01   2,26000e+02
          1184   2,26456e+02   1,18400e+03  -8,28541e-01   9,09131e+01   2,27333e+02
          1192   2,27812e+02   1,19200e+03  -8,36454e-01   9,09127e+01   2,28667e+02
          1200   2,29158e+02   1,20000e+03  -8,42112e-01   9,09035e+01   2,30000e+02
          1208   2,30514e+02   1,20800e+03  -8,39930e-01   9,08777e+01   2,31333e+02
          1216   2,31867e+02   1,21600e+03  -8,40875e-01   9,08637e+01   2,32667e+02
          1224   2,33214e+02   1,22400e+03  -8,40609e-01   9,08308e+01   2,34000e+02
          1232   2,34583e+02   1,23200e+03  -8,38951e-01   9,07946e+01   2,35333e+02
          1240   2,35937e+02   1,24000e+03  -8,36382e-01   9,07804e+01   2,36667e+02
          1248   2,37299e+02   1,24800e+03  -8,30364e-01   9,07533e+01   2,38000e+02
          1256   2,38648e+02   1,25600e+03  -8,25954e-01   9,07427e+01   2,39333e+02
          1264   2,39999e+02   1,26400e+03  -8,18943e-01   9,07106e+01   2,40667e+02
          1272   2,41353e+02   1,27200e+03  -8,13890e-01   9,06985e+01   2,42000e+02
          1280   2,42708e+02   1,28000e+03  -8,03990e-01   9,06983e+01   2,43333e+02
          1288   2,44076e+02   1,28800e+03  -7,90650e-01   9,06866e+01   2,44667e+02
          1296   2,45422e+02   1,29600e+03  -7,79396e-01   9,06798e+01   2,46000e+02
          1304   2,46772e+02   1,30400e+03  -7,73444e-01   9,06721e+01   2,47333e+02
          1312   2,48128e+02   1,31200e+03  -7,68532e-01   9,06564e+01   2,48667e+02
          1320   2,49472e+02   1,32000e+03  -7,66943e-01   9,06437e+01   2,50000e+02
          1328   2,50836e+02   1,32800e+03  -7,61425e-01   9,06380e+01   2,51333e+02
          1336   2,52193e+02   1,33600e+03  -7,49795e-01   9,06433e+01   2,52667e+02
          1344   2,53552e+02   1,34400e+03  -7,39521e-01   9,06412e+01   2,54000e+02
          1352   2,54903e+02   1,35200e+03  -7,33133e-01   9,06402e+01   2,55333e+02
          1360   2,56254e+02   1,36000e+03  -7,24544e-01   9,06319e+01   2,56667e+02
          1368   2,57609e+02   1,36800e+03  -7,13973e-01   9,06230e+01   2,58000e+02
          1376   2,58962e+02   1,37600e+03  -7,04720e-01   9,06112e+01   2,59333e+02
          1384   2,60318e+02   1,38400e+03  -6,95160e-01   9,05993e+01   2,60667e+02
          1392   2,61685e+02   1,39200e+03  -6,87011e-01   9,05939e+01   2,62000e+02
          1400   2,63026e+02   1,40000e+03  -6,79505e-01   9,05901e+01   2,63333e+02
          1408   2,64384e+02   1,40800e+03  -6,72452e-01   9,05870e+01   2,64667e+02
          1416   2,65738e+02   1,41600e+03  -6,66696e-01   9,05893e+01   2,66000e+02
          1424   2,67095e+02   1,42400e+03  -6,56261e-01   9,05910e+01   2,67333e+02
          1432   2,68452e+02   1,43200e+03  -6,45388e-01   9,05801e+01   2,68667e+02
          1440   2,69799e+02   1,44000e+03  -6,35309e-01   9,05787e+01   2,70000e+02
          1448   2,71161e+02   1,44800e+03  -6,21001e-01   9,05735e+01   2,71333e+02
          1456   2,72510e+02   1,45600e+03  -6,05276e-01   9,05615e+01   2,72667e+02
          1464   2,73858e+02   1,46400e+03  -5,97348e-01   9,05564e+01   2,74000e+02
          1472   2,75230e+02   1,47200e+03  -5,90381e-01   9,05571e+01   2,75333e+02
          1480   2,76571e+02   1,48000e+03  -5,83730e-01   9,05491e+01   2,76667e+02
          1488   2,77923e+02   1,48800e+03  -5,76363e-01   9,05480e+01   2,78000e+02
          1496   2,79282e+02   1,49600e+03  -5,66536e-01   9,05543e+01   2,79333e+02
          1504   2,80632e+02   1,50400e+03  -5,51848e-01   9,05419e+01   2,80667e+02
          1512   2,81986e+02   1,51200e+03  -5,44774e-01   9,05418e+01   2,82000e+02
          1520   2,83334e+02   1,52000e+03  -5,37347e-01   9,05402e+01   2,83333e+02
          1528   2,84685e+02   1,52800e+03  -5,24868e-01   9,05362e+01   2,84667e+02
          1536   2,86039e+02   1,53600e+03  -5,08746e-01   9,05322e+01   2,86000e+02
          1544   2,87393e+02   1,54400e+03  -4,96114e-01   9,05312e+01   2,87333e+02
          1552   2,88748e+02   1,55200e+03  -4,83686e-01   9,05262e+01   2,88667e+02
          1560   2,90096e+02   1,56000e+03  -4,68540e-01   9,05294e+01   2,90000e+02
          1568   2,91457e+02   1,56800e+03  -4,52166e-01   9,05281e+01   2,91333e+02
          1576   2,92822e+02   1,57600e+03  -4,42872e-01   9,05258e+01   2,92667e+02
          1584   2,94173e+02   1,58400e+03  -4,30030e-01   9,05167e+01   2,94000e+02
          1592   2,95519e+02   1,59200e+03  -4,17958e-01   9,05187e+01   2,95333e+02
          1600   2,96880e+02   1,60000e+03  -3,99689e-01   9,05077e+01   2,96667e+02
          1608   2,98230e+02   1,60800e+03  -3,82173e-01   9,05003e+01   2,98000e+02
          1616   2,99584e+02   1,61600e+03  -3,71322e-01   9,05046e+01   2,99333e+02
          1624   3,00936e+02   1,62400e+03  -3,56114e-01   9,04994e+01   3,00667e+02
          1632   3,02301e+02   1,63200e+03  -3,38374e-01   9,04897e+01   3,02000e+02
          1640   3,03646e+02   1,64000e+03  -3,22716e-01   9,04901e+01   3,03333e+02
          1648   3,04983e+02   1,64800e+03  -3,11315e-01   9,04869e+01   3,04667e+02
          1656   3,06347e+02   1,65600e+03  -2,99972e-01   9,04932e+01   3,06000e+02
          1664   3,07708e+02   1,66400e+03  -2,87236e-01   9,04952e+01   3,07333e+02
          1672   3,09052e+02   1,67200e+03  -2,72398e-01   9,04905e+01   3,08667e+02
          1680   3,10408e+02   1,68000e+03  -2,58153e-01   9,04762e+01   3,10000e+02
          1688   3,11763e+02   1,68800e+03  -2,44532e-01   9,04829e+01   3,11333e+02
          1696   3,13116e+02   1,69600e+03  -2,29721e-01   9,04820e+01   3,12667e+02
          1704   3,14467e+02   1,70400e+03  -2,15642e-01   9,04828e+01   3,14000e+02
          1712   3,15819e+02   1,71200e+03  -1,96209e-01   9,04786e+01   3,15333e+02
          1720   3,17161e+02   1,72000e+03  -1,70559e-01   9,04767e+01   3,16667e+02
          1728   3,18518e+02   1,72800e+03  -1,41677e-01   9,04753e+01   3,18000e+02
          1736   3,19871e+02   1,73600e+03  -1,16274e-01   9,04661e+01   3,19333e+02
          1744   3,21222e+02   1,74400e+03  -9,81497e-02   9,04512e+01   3,20667e+02
          1752   3,22573e+02   1,75200e+03  -8,46246e-02   9,04542e+01   3,22000e+02
          1760   3,23921e+02   1,76000e+03  -6,84924e-02   9,04488e+01   3,23333e+02
          1768   3,25275e+02   1,76800e+03  -4,85741e-02   9,04499e+01   3,24667e+02
          1776   3,26622e+02   1,77600e+03  -2,75277e-02   9,04503e+01   3,26000e+02
          1784   3,27970e+02   1,78400e+03  -6,43626e-03   9,04593e+01   3,27333e+02
          1792   3,29331e+02   1,79200e+03   1,25345e-02   9,04422e+01   3,28667e+02
          1800   3,30691e+02   1,80000e+03   3,26014e-02   9,04301e+01   3,30000e+02
          1808   3,32026e+02   1,80800e+03   5,55984e-02   9,04342e+01   3,31333e+02
          1816   3,33384e+02   1,81600e+03   7,73871e-02   9,04184e+01   3,32667e+02
          1824   3,34739e+02   1,82400e+03   9,77074e-02   9,04227e+01   3,34000e+02
          1832   3,36087e+02   1,83200e+03   1,20479e-01   9,04271e+01   3,35333e+02
          1840   3,37444e+02   1,84000e+03   1,45817e-01   9,04177e+01   3,36667e+02
          1848   3,38792e+02   1,84800e+03   1,72613e-01   9,04105e+01   3,38000e+02
          1856   3,40142e+02   1,85600e+03   1,93458e-01   9,04097e+01   3,39333e+02
          1864   3,41502e+02   1,86400e+03   2,14583e-01   9,04152e+01   3,40667e+02
          1872   3,42846e+02   1,87200e+03   2,40549e-01   9,04098e+01   3,42000e+02
          1880   3,44186e+02   1,88000e+03   2,60784e-01   9,04090e+01   3,43333e+02
          1888   3,45552e+02   1,88800e+03   2,79565e-01   9,04125e+01   3,44667e+02
          1896   3,46895e+02   1,89600e+03   3,00985e-01   9,04094e+01   3,46000e+02
          1904   3,48244e+02   1,90400e+03   3,28449e-01   9,04155e+01   3,47333e+02
          1912   3,49597e+02   1,91200e+03   3,54510e-01   9,04055e+01   3,48667e+02
          1920   3,50946e+02   1,92000e+03   3,80435e-01   9,04063e+01   3,50000e+02
          1928   3,52293e+02   1,92800e+03   4,05939e-01   9,04089e+01   3,51333e+02
          1936   3,53645e+02   1,93600e+03   4,42192e-01   9,03954e+01   3,52667e+02
          1944   3,55000e+02   1,94400e+03   4,68650e-01   9,03891e+01   3,54000e+02
          1952   3,56353e+02   1,95200e+03   4,87934e-01   9,03892e+01   3,55333e+02
          1960   3,57700e+02   1,96000e+03   5,06763e-01   9,03964e+01   3,56667e+02
          1968   3,59039e+02   1,96800e+03   5,39855e-01   9,03981e+01   3,58000e+02
          1976   3,60400e+02   1,97600e+03   5,71760e-01   9,03843e+01   3,59333e+02
          1984   3,61748e+02   1,98400e+03   6,00097e-01   9,03776e+01   3,60667e+02
          1992   3,63090e+02   1,99200e+03   6,33881e-01   9,03739e+01   3,62000e+02
          2000   3,64448e+02   2,00000e+03   6,62159e-01   9,03675e+01   3,63333e+02
          2008   3,65804e+02   2,00800e+03   6,88387e-01   9,03679e+01   3,64667e+02
          2016   3,67146e+02   2,01600e+03   7,18483e-01   9,03751e+01   3,66000e+02
          2024   3,68491e+02   2,02400e+03   7,44868e-01   9,03555e+01   3,67333e+02
          2032   3,69838e+02   2,03200e+03   7,71288e-01   9,03499e+01   3,68667e+02
          2040   3,71186e+02   2,04000e+03   7,97057e-01   9,03583e+01   3,70000e+02
          2048   3,72541e+02   2,04800e+03   8,23521e-01   9,03577e+01   3,71333e+02
          2056   3,73892e+02   2,05600e+03   8,54282e-01   9,03529e+01   3,72667e+02
          2064   3,75248e+02   2,06400e+03   8,80717e-01   9,03335e+01   3,74000e+02
          2072   3,76593e+02   2,07200e+03   9,09380e-01   9,03529e+01   3,75333e+02
          2080   3,77948e+02   2,08000e+03   9,41960e-01   9,03746e+01   3,76667e+02
          2088   3,79294e+02   2,08800e+03   9,68162e-01   9,03632e+01   3,78000e+02
          2096   3,80639e+02   2,09600e+03   9,96279e-01   9,03541e+01   3,79333e+02
          2104   3,81990e+02   2,10400e+03   1,02898e+00   9,03407e+01   3,80667e+02
          2112   3,83338e+02   2,11200e+03   1,05962e+00   9,03376e+01   3,82000e+02
          2120   3,84695e+02   2,12000e+03   1,09163e+00   9,03489e+01   3,83333e+02
          2128   3,86034e+02   2,12800e+03   1,12452e+00   9,03391e+01   3,84667e+02
          2136   3,87390e+02   2,13600e+03   1,15510e+00   9,03386e+01   3,86000e+02
          2144   3,88745e+02   2,14400e+03   1,18475e+00   9,03402e+01   3,87333e+02
          2152   3,90089e+02   2,15200e+03   1,21531e+00   9,03353e+01   3,88667e+02
          2160   3,91434e+02   2,16000e+03   1,24707e+00   9,03448e+01   3,90000e+02
          2168   3,92782e+02   2,16800e+03   1,28253e+00   9,03485e+01   3,91333e+02
          2176   3,94136e+02   2,17600e+03   1,31937e+00   9,03271e+01   3,92667e+02
          2184   3,95475e+02   2,18400e+03   1,35692e+00   9,03298e+01   3,94000e+02
          2192   3,96837e+02   2,19200e+03   1,39375e+00   9,03361e+01   3,95333e+02
          2200   3,98174e+02   2,20000e+03   1,42639e+00   9,03335e+01   3,96667e+02
          2208   3,99517e+02   2,20800e+03   1,46654e+00   9,03228e+01   3,98000e+02
          2216   4,00871e+02   2,21600e+03   1,50005e+00   9,03084e+01   3,99333e+02
          2224   4,02215e+02   2,22400e+03   1,53604e+00   9,03081e+01   4,00667e+02
          2232   4,03567e+02   2,23200e+03   1,57375e+00   9,02989e+01   4,02000e+02
          2240   4,04918e+02   2,24000e+03   1,61916e+00   9,03065e+01   4,03333e+02
          2248   4,06262e+02   2,24800e+03   1,65564e+00   9,03055e+01   4,04667e+02
          2256   4,07604e+02   2,25600e+03   1,69380e+00   9,02879e+01   4,06000e+02
          2264   4,08949e+02   2,26400e+03   1,72975e+00   9,02800e+01   4,07333e+02
          2272   4,10294e+02   2,27200e+03   1,77022e+00   9,02973e+01   4,08667e+02
          2280   4,11645e+02   2,28000e+03   1,81223e+00   9,02870e+01   4,10000e+02
          2288   4,12990e+02   2,28800e+03   1,84433e+00   9,02844e+01   4,11333e+02
          2296   4,14329e+02   2,29600e+03   1,88054e+00   9,02785e+01   4,12667e+02
          2304   4,15676e+02   2,30400e+03   1,91436e+00   9,02812e+01   4,14000e+02
          2312   4,17026e+02   2,31200e+03   1,94947e+00   9,02824e+01   4,15333e+02
          2320   4,18367e+02   2,32000e+03   1,99169e+00   9,02766e+01   4,16667e+02
          2328   4,19709e+02   2,32800e+03   2,03305e+00   9,02572e+01   4,18000e+02
          2336   4,21058e+02   2,33600e+03   2,07340e+00   9,02549e+01   4,19333e+02
          2344   4,22409e+02   2,34400e+03   2,11733e+00   9,02619e+01   4,20667e+02
          2352   4,23750e+02   2,35200e+03   2,16019e+00   9,02536e+01   4,22000e+02
          2360   4,25104e+02   2,36000e+03   2,20452e+00   9,02554e+01   4,23333e+02
          2368   4,26452e+02   2,36800e+03   2,25165e+00   9,02387e+01   4,24667e+02
          2376   4,27792e+02   2,37600e+03   2,30139e+00   9,02421e+01   4,26000e+02
          2384   4,29129e+02   2,38400e+03   2,34002e+00   9,02347e+01   4,27333e+02
          2392   4,30482e+02   2,39200e+03   2,37828e+00   9,02475e+01   4,28667e+02
          2400   4,31831e+02   2,40000e+03   2,41430e+00   9,02355e+01   4,30000e+02
          2408   4,33167e+02   2,40800e+03   2,44949e+00   9,02283e+01   4,31333e+02
          2416   4,34512e+02   2,41600e+03   2,49729e+00   9,02310e+01   4,32667e+02
          2424   4,35863e+02   2,42400e+03   2,54375e+00   9,02208e+01   4,34000e+02
          2432   4,37206e+02   2,43200e+03   2,58890e+00   9,02105e+01   4,35333e+02
          2440   4,38542e+02   2,44000e+03   2,64036e+00   9,02068e+01   4,36667e+02
          2448   4,39885e+02   2,44800e+03   2,69287e+00   9,01886e+01   4,38000e+02
          2456   4,41237e+02   2,45600e+03   2,74102e+00   9,01867e+01   4,39333e+02
          2464   4,42580e+02   2,46400e+03   2,78520e+00   9,01939e+01   4,40667e+02
          2472   4,43918e+02   2,47200e+03   2,83056e+00   9,01979e+01   4,42000e+02
          2480   4,45266e+02   2,48000e+03   2,87704e+00   9,01892e+01   4,43333e+02
          2488   4,46610e+02   2,48800e+03   2,92401e+00   9,01673e+01   4,44667e+02
          2496   4,47945e+02   2,49600e+03   2,97221e+00   9,01814e+01   4,46000e+02
          2504   4,49286e+02   2,50400e+03   3,01446e+00   9,01698e+01   4,47333e+02
          2512   4,50636e+02   2,51200e+03   3,05994e+00   9,01705e+01   4,48667e+02
          2520   4,51984e+02   2,52000e+03   3,10661e+00   9,01558e+01   4,50000e+02
          2528   4,53320e+02   2,52800e+03   3,14453e+00   9,01432e+01   4,51333e+02
          2536   4,54665e+02   2,53600e+03   3,18920e+00   9,01581e+01   4,52667e+02
          2544   4,56009e+02   2,54400e+03   3,22849e+00   9,01528e+01   4,54000e+02
          2552   4,57345e+02   2,55200e+03   3,26874e+00   9,01413e+01   4,55333e+02
          2560   4,58692e+02   2,56000e+03   3,31315e+00   9,01383e+01   4,56667e+02
          2568   4,60045e+02   2,56800e+03   3,35166e+00   9,01325e+01   4,58000e+02
          2576   4,61381e+02   2,57600e+03   3,40020e+00   9,01124e+01   4,59333e+02
          2584   4,62722e+02   2,58400e+03   3,44731e+00   9,01167e+01   4,60667e+02
          2592   4,64073e+02   2,59200e+03   3,49396e+00   9,01160e+01   4,62000e+02
          2600   4,65421e+02   2,60000e+03   3,54712e+00   9,01143e+01   4,63333e+02
          2608   4,66758e+02   2,60800e+03   3,60232e+00   9,01027e+01   4,64667e+02
          2616   4,68104e+02   2,61600e+03   3,65893e+00   9,00823e+01   4,66000e+02
          2624   4,69443e+02   2,62400e+03   3,70905e+00   9,00672e+01   4,67333e+02
          2632   4,70783e+02   2,63200e+03   3,75749e+00   9,00654e+01   4,68667e+02
          2640   4,72129e+02   2,64000e+03   3,80189e+00   9,00546e+01   4,70000e+02
          2648   4,73463e+02   2,64800e+03   3,85445e+00   9,00361e+01   4,71333e+02
          2656   4,74814e+02   2,65600e+03   3,90209e+00   9,00195e+01   4,72667e+02
          2664   4,76164e+02   2,66400e+03   3,95028e+00   9,00170e+01   4,74000e+02
          2672   4,77500e+02   2,67200e+03   4,00028e+00   9,00091e+01   4,75333e+02
          2680   4,78844e+02   2,68000e+03   4,05462e+00   9,00129e+01   4,76667e+02
          2688   4,80180e+02   2,68800e+03   4,11195e+00   9,00022e+01   4,78000e+02
          2696   4,81528e+02   2,69600e+03   4,15865e+00   8,99828e+01   4,79333e+02
          2704   4,82876e+02   2,70400e+03   4,20260e+00   8,99741e+01   4,80667e+02
          2712   4,84212e+02   2,71200e+03   4,25084e+00   8,99797e+01   4,82000e+02
          2720   4,85558e+02   2,72000e+03   4,29067e+00   8,99703e+01   4,83333e+02
          2728   4,86896e+02   2,72800e+03   4,33623e+00   8,99469e+01   4,84667e+02
          2736   4,88243e+02   2,73600e+03   4,38343e+00   8,99449e+01   4,86000e+02
          2744   4,89590e+02   2,74400e+03   4,43590e+00   8,99269e+01   4,87333e+02
          2752   4,90927e+02   2,75200e+03   4,48264e+00   8,99188e+01   4,88667e+02
          2760   4,92266e+02   2,76000e+03   4,53010e+00   8,99058e+01   4,90000e+02
          2768   4,93622e+02   2,76800e+03   4,58031e+00   8,99107e+01   4,91333e+02
          2776   4,94964e+02   2,77600e+03   4,63843e+00   8,99024e+01   4,92667e+02
          2784   4,96304e+02   2,78400e+03   4,69289e+00   8,98844e+01   4,94000e+02
          2792   4,97654e+02   2,79200e+03   4,74000e+00   8,98629e+01   4,95333e+02
          2800   4,98999e+02   2,80000e+03   4,79229e+00   8,98448e+01   4,96667e+02
          2808   5,00350e+02   2,80800e+03   4,85189e+00   8,98252e+01   4,98000e+02
          2816   5,01671e+02   2,81600e+03   4,89750e+00   8,98031e+01   4,99333e+02
          2824   5,03032e+02   2,82400e+03   4,94692e+00   8,97845e+01   5,00667e+02
          2832   5,04368e+02   2,83200e+03   4,98973e+00   8,97647e+01   5,02000e+02
          2840   5,05710e+02   2,84000e+03   5,03419e+00   8,97425e+01   5,03333e+02
          2848   5,07056e+02   2,84800e+03   5,08285e+00   8,97288e+01   5,04667e+02
          2856   5,08397e+02   2,85600e+03   5,12736e+00   8,97089e+01   5,06000e+02
          2864   5,09743e+02   2,86400e+03   5,17741e+00   8,97038e+01   5,07333e+02
          2872   5,11091e+02   2,87200e+03   5,22742e+00   8,96850e+01   5,08667e+02
          2880   5,12436e+02   2,88000e+03   5,27830e+00   8,96462e+01   5,10000e+02
          2888   5,13785e+02   2,88800e+03   5,32914e+00   8,96165e+01   5,11333e+02
          2896   5,15135e+02   2,89600e+03   5,38081e+00   8,95988e+01   5,12667e+02
          2904   5,16484e+02   2,90400e+03   5,43030e+00   8,95834e+01   5,14000e+02
          2912   5,17819e+02   2,91200e+03   5,48212e+00   8,95627e+01   5,15333e+02
          2920   5,19170e+02   2,92000e+03   5,53767e+00   8,95284e+01   5,16667e+02
          2928   5,20507e+02   2,92800e+03   5,58431e+00   8,95026e+01   5,18000e+02
          2936   5,21852e+02   2,93600e+03   5,64042e+00   8,94912e+01   5,19333e+02
          2944   5,23208e+02   2,94400e+03   5,69421e+00   8,94528e+01   5,20667e+02
          2952   5,24559e+02   2,95200e+03   5,74055e+00   8,94189e+01   5,22000e+02
          2960   5,25888e+02   2,96000e+03   5,78716e+00   8,93751e+01   5,23333e+02
          2968   5,27243e+02   2,96800e+03   5,82653e+00   8,93385e+01   5,24667e+02
          2976   5,28590e+02   2,97600e+03   5,86260e+00   8,92912e+01   5,26000e+02
          2984   5,29937e+02   2,98400e+03   5,89315e+00   8,92514e+01   5,27333e+02
          2992   5,31276e+02   2,99200e+03   5,93120e+00   8,92467e+01   5,28667e+02
          3000   5,32630e+02   3,00000e+03   5,98086e+00   8,92132e+01   5,30000e+02
          3008   5,33975e+02   3,00800e+03   6,03065e+00   8,91462e+01   5,31333e+02
          3016   5,35338e+02   3,01600e+03   6,07980e+00   8,90963e+01   5,32667e+02
          3024   5,36676e+02   3,02400e+03   6,12300e+00   8,90488e+01   5,34000e+02
          3032   5,38015e+02   3,03200e+03   6,15598e+00   8,89957e+01   5,35333e+02
          3040   5,39371e+02   3,04000e+03   6,18637e+00   8,89443e+01   5,36667e+02
          3048   5,40717e+02   3,04800e+03   6,21948e+00   8,88975e+01   5,38000e+02
          3056   5,42065e+02   3,05600e+03   6,25751e+00   8,88519e+01   5,39333e+02
          3064   5,43408e+02   3,06400e+03   6,28323e+00   8,87997e+01   5,40667e+02
          3072   5,44760e+02   3,07200e+03   6,29745e+00   8,87381e+01   5,42000e+02
          3080   5,46108e+02   3,08000e+03   6,32350e+00   8,86607e+01   5,43333e+02
          3088   5,47446e+02   3,08800e+03   6,35704e+00   8,85989e+01   5,44667e+02
          3096   5,48792e+02   3,09600e+03   6,38331e+00   8,85319e+01   5,46000e+02
          3104   5,50144e+02   3,10400e+03   6,39649e+00   8,84500e+01   5,47333e+02
          3112   5,51492e+02   3,11200e+03   6,41486e+00   8,83685e+01   5,48667e+02
          3120   5,52837e+02   3,12000e+03   6,43093e+00   8,82824e+01   5,50000e+02
          3128   5,54187e+02   3,12800e+03   6,44761e+00   8,81919e+01   5,51333e+02
          3136   5,55531e+02   3,13600e+03   6,46324e+00   8,81067e+01   5,52667e+02
          3144   5,56885e+02   3,14400e+03   6,46995e+00   8,80065e+01   5,54000e+02
          3152   5,58227e+02   3,15200e+03   6,46613e+00   8,79130e+01   5,55333e+02
          3160   5,59560e+02   3,16000e+03   6,46883e+00   8,78095e+01   5,56667e+02
          3168   5,60920e+02   3,16800e+03   6,48101e+00   8,76985e+01   5,58000e+02
          3176   5,62253e+02   3,17600e+03   6,48854e+00   8,75807e+01   5,59333e+02
          3184   5,63611e+02   3,18400e+03   6,50012e+00   8,74829e+01   5,60667e+02
          3192   5,64950e+02   3,19200e+03   6,50347e+00   8,73525e+01   5,62000e+02
          3200   5,66303e+02   3,20000e+03   6,50444e+00   8,72067e+01   5,63333e+02
          3208   5,67644e+02   3,20800e+03   6,50254e+00   8,70897e+01   5,64667e+02
          3216   5,68992e+02   3,21600e+03   6,49848e+00   8,69557e+01   5,66000e+02
          3224   5,70340e+02   3,22400e+03   6,48712e+00   8,68146e+01   5,67333e+02
          3232   5,71696e+02   3,23200e+03   6,47592e+00   8,66618e+01   5,68667e+02
          3240   5,73038e+02   3,24000e+03   6,46941e+00   8,65179e+01   5,70000e+02
          3248   5,74389e+02   3,24800e+03   6,45964e+00   8,63677e+01   5,71333e+02
          3256   5,75740e+02   3,25600e+03   6,45352e+00   8,61953e+01   5,72667e+02
          3264   5,77091e+02   3,26400e+03   6,43754e+00   8,60219e+01   5,74000e+02
          3272   5,78430e+02   3,27200e+03   6,42099e+00   8,58670e+01   5,75333e+02
          3280   5,79782e+02   3,28000e+03   6,40102e+00   8,56906e+01   5,76667e+02
          3288   5,81127e+02   3,28800e+03   6,37583e+00   8,55078e+01   5,78000e+02
          3296   5,82465e+02   3,29600e+03   6,35017e+00   8,53122e+01   5,79333e+02
          3304   5,83828e+02   3,30400e+03   6,31316e+00   8,51130e+01   5,80667e+02
          3312   5,85154e+02   3,31200e+03   6,28078e+00   8,49130e+01   5,82000e+02
          3320   5,86510e+02   3,32000e+03   6,24934e+00   8,47079e+01   5,83333e+02
          3328   5,87843e+02   3,32800e+03   6,21121e+00   8,44830e+01   5,84667e+02
          3336   5,89195e+02   3,33600e+03   6,15987e+00   8,42534e+01   5,86000e+02
          3344   5,90540e+02   3,34400e+03   6,10436e+00   8,40040e+01   5,87333e+02
          3352   5,91893e+02   3,35200e+03   6,04438e+00   8,37623e+01   5,88667e+02
          3360   5,93234e+02   3,36000e+03   5,98173e+00   8,35092e+01   5,90000e+02
          3368   5,94569e+02   3,36800e+03   5,91460e+00   8,32472e+01   5,91333e+02
          3376   5,95923e+02   3,37600e+03   5,83909e+00   8,29763e+01   5,92667e+02
          3384   5,97272e+02   3,38400e+03   5,76438e+00   8,27076e+01   5,94000e+02
          3392   5,98615e+02   3,39200e+03   5,68334e+00   8,24028e+01   5,95333e+02
          3400   5,99960e+02   3,40000e+03   5,59673e+00   8,21127e+01   5,96667e+02
          3408   6,01302e+02   3,40800e+03   5,50310e+00   8,17964e+01   5,98000e+02
          3416   6,02649e+02   3,41600e+03   5,40606e+00   8,14665e+01   5,99333e+02
          3424   6,03996e+02   3,42400e+03   5,30202e+00   8,11154e+01   6,00667e+02
          3432   6,05334e+02   3,43200e+03   5,19772e+00   8,07798e+01   6,02000e+02
          3440   6,06683e+02   3,44000e+03   5,09082e+00   8,04220e+01   6,03333e+02
          3448   6,08037e+02   3,44800e+03   4,98258e+00   8,00522e+01   6,04667e+02
          3456   6,09378e+02   3,45600e+03   4,87404e+00   7,96536e+01   6,06000e+02
          3464   6,10713e+02   3,46400e+03   4,75563e+00   7,92565e+01   6,07333e+02
          3472   6,12073e+02   3,47200e+03   4,63253e+00   7,88417e+01   6,08667e+02
          3480   6,13404e+02   3,48000e+03   4,52232e+00   7,84218e+01   6,10000e+02
          3488   6,14753e+02   3,48800e+03   4,41755e+00   7,79781e+01   6,11333e+02
          3496   6,16098e+02   3,49600e+03   4,31225e+00   7,75357e+01   6,12667e+02
          3504   6,17441e+02   3,50400e+03   4,20917e+00   7,70741e+01   6,14000e+02
          3512   6,18788e+02   3,51200e+03   4,11242e+00   7,66156e+01   6,15333e+02
          3520   6,20135e+02   3,52000e+03   4,03084e+00   7,61363e+01   6,16667e+02
          3528   6,21486e+02   3,52800e+03   3,95980e+00   7,56470e+01   6,18000e+02
          3536   6,22830e+02   3,53600e+03   3,90509e+00   7,51476e+01   6,19333e+02
          3544   6,24174e+02   3,54400e+03   3,86594e+00   7,46497e+01   6,20667e+02
          3552   6,25531e+02   3,55200e+03   3,84667e+00   7,41304e+01   6,22000e+02
          3560   6,26872e+02   3,56000e+03   3,85190e+00   7,36144e+01   6,23333e+02
          3568   6,28219e+02   3,56800e+03   3,86913e+00   7,30859e+01   6,24667e+02
          3576   6,29568e+02   3,57600e+03   3,89584e+00   7,25778e+01   6,26000e+02
          3584   6,30915e+02   3,58400e+03   3,94234e+00   7,20752e+01   6,27333e+02
          3592   6,32268e+02   3,59200e+03   4,00934e+00   7,15507e+01   6,28667e+02
          3600   6,33616e+02   3,60000e+03   4,10476e+00   7,10228e+01   6,30000e+02
          3608   6,34965e+02   3,60800e+03   4,21922e+00   7,05022e+01   6,31333e+02
          3616   6,36308e+02   3,61600e+03   4,35022e+00   7,00096e+01   6,32667e+02
          3624   6,37664e+02   3,62400e+03   4,48914e+00   6,95053e+01   6,34000e+02
          3632   6,39034e+02   3,63200e+03   4,64472e+00   6,90163e+01   6,35333e+02
          3640   6,40364e+02   3,64000e+03   4,82545e+00   6,85168e+01   6,36667e+02
          3648   6,41727e+02   3,64800e+03   5,00919e+00   6,80451e+01   6,38000e+02
          3656   6,43075e+02   3,65600e+03   5,20370e+00   6,75818e+01   6,39333e+02
          3664   6,44425e+02   3,66400e+03   5,40690e+00   6,71197e+01   6,40667e+02
          3672   6,45779e+02   3,67200e+03   5,61100e+00   6,66770e+01   6,42000e+02
          3680   6,47127e+02   3,68000e+03   5,82073e+00   6,62316e+01   6,43333e+02
          3688   6,48489e+02   3,68800e+03   6,03110e+00   6,57929e+01   6,44667e+02
          3696   6,49836e+02   3,69600e+03   6,23943e+00   6,53610e+01   6,46000e+02
          3704   6,51173e+02   3,70400e+03   6,43810e+00   6,49450e+01   6,47333e+02
          3712   6,52523e+02   3,71200e+03   6,63434e+00   6,45558e+01   6,48667e+02
          3720   6,53882e+02   3,72000e+03   6,82586e+00   6,41692e+01   6,50000e+02
          3728   6,55234e+02   3,72800e+03   7,01556e+00   6,37945e+01   6,51333e+02
          3736   6,56585e+02   3,73600e+03   7,19873e+00   6,34011e+01   6,52667e+02
          3744   6,57933e+02   3,74400e+03   7,36215e+00   6,30310e+01   6,54000e+02
          3752   6,59284e+02   3,75200e+03   7,50887e+00   6,26821e+01   6,55333e+02
          3760   6,60625e+02   3,76000e+03   7,64349e+00   6,23223e+01   6,56667e+02
          3768   6,61965e+02   3,76800e+03   7,76286e+00   6,19713e+01   6,58000e+02
          3776   6,63313e+02   3,77600e+03   7,86600e+00   6,16202e+01   6,59333e+02
          3784   6,64663e+02   3,78400e+03   7,95200e+00   6,12693e+01   6,60667e+02
          3792   6,66011e+02   3,79200e+03   8,02420e+00   6,09179e+01   6,62000e+02
          3800   6,67342e+02   3,80000e+03   8,08385e+00   6,05700e+01   6,63333e+02
          3808   6,68698e+02   3,80800e+03   8,12670e+00   6,02162e+01   6,64667e+02
          3816   6,70044e+02   3,81600e+03   8,16087e+00   5,98737e+01   6,66000e+02
          3824   6,71383e+02   3,82400e+03   8,18585e+00   5,95342e+01   6,67333e+02
          3832   6,72734e+02   3,83200e+03   8,20371e+00   5,91687e+01   6,68667e+02
          3840   6,74073e+02   3,84000e+03   8,19651e+00   5,88152e+01   6,70000e+02
          3848   6,75414e+02   3,84800e+03   8,18409e+00   5,84460e+01   6,71333e+02
          3856   6,76765e+02   3,85600e+03   8,15705e+00   5,80865e+01   6,72667e+02
          3864   6,78112e+02   3,86400e+03   8,11977e+00   5,77155e+01   6,74000e+02
          3872   6,79451e+02   3,87200e+03   8,08388e+00   5,73226e+01   6,75333e+02
          3880   6,80797e+02   3,88000e+03   8,04913e+00   5,69435e+01   6,76667e+02
          3888   6,82141e+02   3,88800e+03   8,00169e+00   5,65441e+01   6,78000e+02
          3896   6,83483e+02   3,89600e+03   7,95452e+00   5,61556e+01   6,79333e+02
          3904   6,84824e+02   3,90400e+03   7,90524e+00   5,57382e+01   6,80667e+02
          3912   6,86174e+02   3,91200e+03   7,85081e+00   5,53164e+01   6,82000e+02
          3920   6,87515e+02   3,92000e+03   7,79301e+00   5,48937e+01   6,83333e+02
          3928   6,88851e+02   3,92800e+03   7,72478e+00   5,44747e+01   6,84667e+02
          3936   6,90195e+02   3,93600e+03   7,65314e+00   5,40500e+01   6,86000e+02
          3944   6,91551e+02   3,94400e+03   7,58658e+00   5,36017e+01   6,87333e+02
          3952   6,92891e+02   3,95200e+03   7,51050e+00   5,31461e+01   6,88667e+02
          3960   6,94235e+02   3,96000e+03   7,42714e+00   5,26831e+01   6,90000e+02
          3968   6,95576e+02   3,96800e+03   7,35007e+00   5,22233e+01   6,91333e+02
          3976   6,96923e+02   3,97600e+03   7,27659e+00   5,17513e+01   6,92667e+02
          3984   6,98262e+02   3,98400e+03   7,19665e+00   5,12671e+01   6,94000e+02
          3992   6,99609e+02   3,99200e+03   7,11848e+00   5,07814e+01   6,95333e+02
          4000   7,00959e+02   4,00000e+03   7,04222e+00   5,02889e+01   6,96667e+02
          4008   7,02294e+02   4,00800e+03   6,96990e+00   4,97882e+01   6,98000e+02
          4016   7,03646e+02   4,01600e+03   6,88843e+00   4,92708e+01   6,99333e+02
          4024   7,04987e+02   4,02400e+03   6,81194e+00   4,87578e+01   7,00667e+02
          4032   7,06324e+02   4,03200e+03   6,74261e+00   4,82256e+01   7,02000e+02
          4040   7,07670e+02   4,04000e+03   6,65708e+00   4,76994e+01   7,03333e+02
          4048   7,09024e+02   4,04800e+03   6,58879e+00   4,71591e+01   7,04667e+02
          4056   7,10371e+02   4,05600e+03   6,52291e+00   4,66319e+01   7,06000e+02
          4064   7,11705e+02   4,06400e+03   6,45256e+00   4,60920e+01   7,07333e+02
          4072   7,13059e+02   4,07200e+03   6,37870e+00   4,55401e+01   7,08667e+02
          4080   7,14405e+02   4,08000e+03   6,31148e+00   4,49903e+01   7,10000e+02
          4088   7,15754e+02   4,08800e+03   6,24967e+00   4,44267e+01   7,11333e+02
          4096   7,17091e+02   4,09600e+03   6,18574e+00   4,38721e+01   7,12667e+02
          4104   7,18445e+02   4,10400e+03   6,11262e+00   4,33027e+01   7,14000e+02
          4112   7,19775e+02   4,11200e+03   6,04254e+00   4,27384e+01   7,15333e+02
          4120   7,21134e+02   4,12000e+03   5,96916e+00   4,21760e+01   7,16667e+02
          4128   7,22472e+02   4,12800e+03   5,90246e+00   4,16065e+01   7,18000e+02
          4136   7,23810e+02   4,13600e+03   5,84246e+00   4,10274e+01   7,19333e+02
          4144   7,25166e+02   4,14400e+03   5,76939e+00   4,04473e+01   7,20667e+02
          4152   7,26516e+02   4,15200e+03   5,70892e+00   3,98798e+01   7,22000e+02
          4160   7,27856e+02   4,16000e+03   5,64950e+00   3,93060e+01   7,23333e+02
          4168   7,29195e+02   4,16800e+03   5,59172e+00   3,87211e+01   7,24667e+02
          4176   7,30541e+02   4,17600e+03   5,52921e+00   3,81460e+01   7,26000e+02
          4184   7,31883e+02   4,18400e+03   5,47375e+00   3,75654e+01   7,27333e+02
          4192   7,33229e+02   4,19200e+03   5,41827e+00   3,69855e+01   7,28667e+02
          4200   7,34579e+02   4,20000e+03   5,35399e+00   3,64062e+01   7,30000e+02
          4208   7,35920e+02   4,20800e+03   5,29788e+00   3,58306e+01   7,31333e+02
          4216   7,37265e+02   4,21600e+03   5,25707e+00   3,52793e+01   7,32667e+02
          4224   7,38621e+02   4,22400e+03   5,21254e+00   3,46941e+01   7,34000e+02
          4232   7,39965e+02   4,23200e+03   5,17542e+00   3,41229e+01   7,35333e+02
          4240   7,41305e+02   4,24000e+03   5,12992e+00   3,35561e+01   7,36667e+02
          4248   7,42659e+02   4,24800e+03   5,09876e+00   3,30127e+01   7,38000e+02
          4256   7,43992e+02   4,25600e+03   5,07215e+00   3,24748e+01   7,39333e+02
          4264   7,45349e+02   4,26400e+03   5,04518e+00   3,19186e+01   7,40667e+02
          4272   7,46692e+02   4,27200e+03   5,02011e+00   3,13813e+01   7,42000e+02
          4280   7,48034e+02   4,28000e+03   4,98832e+00   3,08521e+01   7,43333e+02
          4288   7,49382e+02   4,28800e+03   4,95663e+00   3,03196e+01   7,44667e+02
          4296   7,50725e+02   4,29600e+03   4,93725e+00   2,98066e+01   7,46000e+02
          4304   7,52064e+02   4,30400e+03   4,90884e+00   2,92820e+01   7,47333e+02
          4312   7,53419e+02   4,31200e+03   4,88175e+00   2,87860e+01   7,48667e+02
          4320   7,54755e+02   4,32000e+03   4,86026e+00   2,82910e+01   7,50000e+02
          4328   7,56109e+02   4,32800e+03   4,82667e+00   2,77888e+01   7,51333e+02
          4336   7,57450e+02   4,33600e+03   4,78602e+00   2,73074e+01   7,52667e+02
          4344   7,58801e+02   4,34400e+03   4,74825e+00   2,68267e+01   7,54000e+02
          4352   7,60155e+02   4,35200e+03   4,72989e+00   2,63704e+01   7,55333e+02
          4360   7,61495e+02   4,36000e+03   4,71197e+00   2,59103e+01   7,56667e+02
          4368   7,62834e+02   4,36800e+03   4,67687e+00   2,54533e+01   7,58000e+02
          4376   7,64175e+02   4,37600e+03   4,63843e+00   2,50217e+01   7,59333e+02
          4384   7,65526e+02   4,38400e+03   4,60943e+00   2,45914e+01   7,60667e+02
          4392   7,66871e+02   4,39200e+03   4,58477e+00   2,41565e+01   7,62000e+02
          4400   7,68203e+02   4,40000e+03   4,55800e+00   2,37378e+01   7,63333e+02
          4408   7,69566e+02   4,40800e+03   4,51180e+00   2,33251e+01   7,64667e+02
          4416   7,70907e+02   4,41600e+03   4,46515e+00   2,29378e+01   7,66000e+02
          4424   7,72247e+02   4,42400e+03   4,42305e+00   2,25468e+01   7,67333e+02
          4432   7,73598e+02   4,43200e+03   4,37518e+00   2,21540e+01   7,68667e+02
          4440   7,74938e+02   4,44000e+03   4,33336e+00   2,17867e+01   7,70000e+02
          4448   7,76290e+02   4,44800e+03   4,29291e+00   2,14161e+01   7,71333e+02
          4456   7,77642e+02   4,45600e+03   4,26041e+00   2,10501e+01   7,72667e+02
          4464   7,78987e+02   4,46400e+03   4,22041e+00   2,06856e+01   7,74000e+02
          4472   7,80330e+02   4,47200e+03   4,17472e+00   2,03465e+01   7,75333e+02
          4480   7,81670e+02   4,48000e+03   4,12459e+00   2,00123e+01   7,76667e+02
          4488   7,83026e+02   4,48800e+03   4,07139e+00   1,96808e+01   7,78000e+02
          4496   7,84372e+02   4,49600e+03   4,02124e+00   1,93760e+01   7,79333e+02
          4504   7,85708e+02   4,50400e+03   3,96163e+00   1,90700e+01   7,80667e+02
          4512   7,87063e+02   4,51200e+03   3,91696e+00   1,87638e+01   7,82000e+02
          4520   7,88400e+02   4,52000e+03   3,88633e+00   1,84703e+01   7,83333e+02
          4528   7,89757e+02   4,52800e+03   3,84447e+00   1,81795e+01   7,84667e+02
          4536   7,91094e+02   4,53600e+03   3,80202e+00   1,78946e+01   7,86000e+02
          4544   7,92446e+02   4,54400e+03   3,74652e+00   1,76357e+01   7,87333e+02
          4552   7,93792e+02   4,55200e+03   3,70081e+00   1,73755e+01   7,88667e+02
          4560   7,95140e+02   4,56000e+03   3,65926e+00   1,71171e+01   7,90000e+02
          4568   7,96497e+02   4,56800e+03   3,62545e+00   1,68821e+01   7,91333e+02
          4576   7,97838e+02   4,57600e+03   3,59380e+00   1,66392e+01   7,92667e+02
          4584   7,99184e+02   4,58400e+03   3,55473e+00   1,64160e+01   7,94000e+02
          4592   8,00538e+02   4,59200e+03   3,52001e+00   1,62075e+01   7,95333e+02
          4600   8,01879e+02   4,60000e+03   3,49430e+00   1,59846e+01   7,96667e+02
          4608   8,03227e+02   4,60800e+03   3,47670e+00   1,57758e+01   7,98000e+02
          4616   8,04571e+02   4,61600e+03   3,45292e+00   1,55757e+01   7,99333e+02
          4620   8,05249e+02   4,62000e+03   3,44086e+00   1,55012e+01   8,00000e+02
!&20250826-01 P2 unfilled