File: Absorption_Analysis/TGA/temp_2.txt
         Index            Ts             t            HF        Weight            Tr
           [#]          [°C]           [s]       [Wg^-1]           [%]          [°C]
             0   2.67837e+01   0.00000e+00  -2.91771e+00   9.99198e+01   3.00000e+01
             8   2.76685e+01   8.00000e+00  -2.71022e+00   9.93233e+01   3.13333e+01
            16   2.88979e+01   1.60000e+01  -2.50638e+00   9.89754e+01   3.26667e+01
            24   3.01606e+01   2.40000e+01  -2.31645e+00   9.85684e+01   3.40000e+01
            32   3.14683e+01   3.20000e+01  -2.14313e+00   9.81208e+01   3.53333e+01
            40   3.27826e+01   4.00000e+01  -1.98865e+00   9.77222e+01   3.66667e+01
            48   3.41279e+01   4.80000e+01  -1.85816e+00   9.73912e+01   3.80000e+01
            56   3.54735e+01   5.60000e+01  -1.74944e+00   9.70926e+01   3.93333e+01
            64   3.68162e+01   6.40000e+01  -1.65817e+00   9.68567e+01   4.06667e+01
            72   3.81992e+01   7.20000e+01  -1.57552e+00   9.66673e+01   4.20000e+01
            80   3.95585e+01   8.00000e+01  -1.50394e+00   9.64958e+01   4.33333e+01
            88   4.09506e+01   8.80000e+01  -1.44076e+00   9.63543e+01   4.46667e+01
            96   4.23255e+01   9.60000e+01  -1.38294e+00   9.62270e+01   4.60000e+01
           104   4.37085e+01   1.04000e+02  -1.32804e+00   9.61099e+01   4.73333e+01
           112   4.51094e+01   1.12000e+02  -1.27327e+00   9.59775e+01   4.86667e+01
           120   4.65086e+01   1.20000e+02  -1.22338e+00   9.58589e+01   5.00000e+01
           128   4.78944e+01   1.28000e+02  -1.17757e+00   9.57655e+01   5.13333e+01
           136   4.92879e+01   1.36000e+02  -1.13641e+00   9.56672e+01   5.26667e+01
           144   5.06802e+01   1.44000e+02  -1.09729e+00   9.55732e+01   5.40000e+01
           152   5.20805e+01   1.52000e+02  -1.05606e+00   9.54702e+01   5.53333e+01
           160   5.34640e+01   1.60000e+02  -1.01808e+00   9.53647e+01   5.66667e+01
           168   5.48484e+01   1.68000e+02  -9.83605e-01   9.52903e+01   5.80000e+01
           176   5.62177e+01   1.76000e+02  -9.51095e-01   9.52295e+01   5.93333e+01
           184   5.76118e+01   1.84000e+02  -9.14878e-01   9.51604e+01   6.06667e+01
           192   5.89806e+01   1.92000e+02  -8.84818e-01   9.50879e+01   6.20000e+01
           200   6.03671e+01   2.00000e+02  -8.61191e-01   9.50148e+01   6.33333e+01
           208   6.17437e+01   2.08000e+02  -8.34619e-01   9.49562e+01   6.46667e+01
           216   6.31023e+01   2.16000e+02  -8.11824e-01   9.48983e+01   6.60000e+01
           224   6.44668e+01   2.24000e+02  -7.93127e-01   9.48254e+01   6.73333e+01
           232   6.58421e+01   2.32000e+02  -7.69776e-01   9.47527e+01   6.86667e+01
           240   6.71997e+01   2.40000e+02  -7.46449e-01   9.46908e+01   7.00000e+01
           248   6.85721e+01   2.48000e+02  -7.23714e-01   9.46381e+01   7.13333e+01
           256   6.99254e+01   2.56000e+02  -7.04971e-01   9.45961e+01   7.26667e+01
           264   7.12878e+01   2.64000e+02  -6.91408e-01   9.45440e+01   7.40000e+01
           272   7.26356e+01   2.72000e+02  -6.77889e-01   9.44736e+01   7.53333e+01
           280   7.39752e+01   2.80000e+02  -6.67936e-01   9.44180e+01   7.66667e+01
           288   7.53580e+01   2.88000e+02  -6.54262e-01   9.43876e+01   7.80000e+01
           296   7.66945e+01   2.96000e+02  -6.41040e-01   9.43450e+01   7.93333e+01
           304   7.80674e+01   3.04000e+02  -6.32630e-01   9.42999e+01   8.06667e+01
           312   7.94140e+01   3.12000e+02  -6.23211e-01   9.42780e+01   8.20000e+01
           320   8.07645e+01   3.20000e+02  -6.10841e-01   9.42225e+01   8.33333e+01
           328   8.20987e+01   3.28000e+02  -6.03174e-01   9.41584e+01   8.46667e+01
           336   8.34459e+01   3.36000e+02  -5.94404e-01   9.41057e+01   8.60000e+01
           344   8.47885e+01   3.44000e+02  -5.86014e-01   9.40834e+01   8.73333e+01
           352   8.61408e+01   3.52000e+02  -5.72497e-01   9.40593e+01   8.86667e+01
           360   8.74939e+01   3.60000e+02  -5.70292e-01   9.40228e+01   9.00000e+01
           368   8.88260e+01   3.68000e+02  -5.61661e-01   9.40035e+01   9.13333e+01
           376   9.01846e+01   3.76000e+02  -5.56593e-01   9.39796e+01   9.26667e+01
           384   9.15205e+01   3.84000e+02  -5.56301e-01   9.39486e+01   9.40000e+01
           392   9.28638e+01   3.92000e+02  -5.48033e-01   9.39113e+01   9.53333e+01
           400   9.42112e+01   4.00000e+02  -5.41354e-01   9.38600e+01   9.66667e+01
           408   9.55509e+01   4.08000e+02  -5.40348e-01   9.38154e+01   9.80000e+01
           416   9.68976e+01   4.16000e+02  -5.37269e-01   9.38005e+01   9.93333e+01
           424   9.82355e+01   4.24000e+02  -5.25899e-01   9.37835e+01   1.00667e+02
           432   9.95812e+01   4.32000e+02  -5.19274e-01   9.37449e+01   1.02000e+02
           440   1.00919e+02   4.40000e+02  -5.21295e-01   9.37232e+01   1.03333e+02
           448   1.02269e+02   4.48000e+02  -5.20835e-01   9.37150e+01   1.04667e+02
           456   1.03609e+02   4.56000e+02  -5.21081e-01   9.36954e+01   1.06000e+02
           464   1.04948e+02   4.64000e+02  -5.20245e-01   9.36766e+01   1.07333e+02
           472   1.06296e+02   4.72000e+02  -5.15454e-01   9.36566e+01   1.08667e+02
           480   1.07631e+02   4.80000e+02  -5.09308e-01   9.36217e+01   1.10000e+02
           488   1.08992e+02   4.88000e+02  -5.01804e-01   9.35825e+01   1.11333e+02
           496   1.10324e+02   4.96000e+02  -4.88242e-01   9.35517e+01   1.12667e+02
           504   1.11671e+02   5.04000e+02  -4.74992e-01   9.35145e+01   1.14000e+02
           512   1.13022e+02   5.12000e+02  -4.62115e-01   9.34864e+01   1.15333e+02
           520   1.14357e+02   5.20000e+02  -4.39465e-01   9.34510e+01   1.16667e+02
           528   1.15717e+02   5.28000e+02  -4.21244e-01   9.33909e+01   1.18000e+02
           536   1.17060e+02   5.36000e+02  -4.15907e-01   9.33312e+01   1.19333e+02
           544   1.18399e+02   5.44000e+02  -4.06779e-01   9.33087e+01   1.20667e+02
           552   1.19753e+02   5.52000e+02  -4.03830e-01   9.32935e+01   1.22000e+02
           560   1.21089e+02   5.60000e+02  -4.07393e-01   9.32660e+01   1.23333e+02
           568   1.22439e+02   5.68000e+02  -4.18541e-01   9.32499e+01   1.24667e+02
           576   1.23786e+02   5.76000e+02  -4.29078e-01   9.32276e+01   1.26000e+02
           584   1.25128e+02   5.84000e+02  -4.44673e-01   9.32205e+01   1.27333e+02
           592   1.26461e+02   5.92000e+02  -4.58966e-01   9.32150e+01   1.28667e+02
           600   1.27807e+02   6.00000e+02  -4.79314e-01   9.31987e+01   1.30000e+02
           608   1.29167e+02   6.08000e+02  -4.97982e-01   9.31870e+01   1.31333e+02
           616   1.30528e+02   6.16000e+02  -5.12206e-01   9.31825e+01   1.32667e+02
           624   1.31858e+02   6.24000e+02  -5.30646e-01   9.31720e+01   1.34000e+02
           632   1.33195e+02   6.32000e+02  -5.46826e-01   9.31577e+01   1.35333e+02
           640   1.34556e+02   6.40000e+02  -5.64546e-01   9.31455e+01   1.36667e+02
           648   1.35903e+02   6.48000e+02  -5.86137e-01   9.31389e+01   1.38000e+02
           656   1.37257e+02   6.56000e+02  -6.08014e-01   9.31410e+01   1.39333e+02
           664   1.38607e+02   6.64000e+02  -6.20069e-01   9.31366e+01   1.40667e+02
           672   1.39947e+02   6.72000e+02  -6.29854e-01   9.31301e+01   1.42000e+02
           680   1.41303e+02   6.80000e+02  -6.51476e-01   9.31086e+01   1.43333e+02
           688   1.42649e+02   6.88000e+02  -6.69721e-01   9.30856e+01   1.44667e+02
           696   1.43976e+02   6.96000e+02  -6.82267e-01   9.30583e+01   1.46000e+02
           704   1.45343e+02   7.04000e+02  -6.96744e-01   9.30508e+01   1.47333e+02
           712   1.46690e+02   7.12000e+02  -7.17694e-01   9.30547e+01   1.48667e+02
           720   1.48030e+02   7.20000e+02  -7.29297e-01   9.30530e+01   1.50000e+02
           728   1.49403e+02   7.28000e+02  -7.37412e-01   9.30315e+01   1.51333e+02
           736   1.50740e+02   7.36000e+02  -7.50548e-01   9.30177e+01   1.52667e+02
           744   1.52076e+02   7.44000e+02  -7.55182e-01   9.30018e+01   1.54000e+02
           752   1.53435e+02   7.52000e+02  -7.61815e-01   9.29762e+01   1.55333e+02
           760   1.54776e+02   7.60000e+02  -7.75210e-01   9.29640e+01   1.56667e+02
           768   1.56151e+02   7.68000e+02  -7.90242e-01   9.29862e+01   1.58000e+02
           776   1.57497e+02   7.76000e+02  -8.06374e-01   9.29750e+01   1.59333e+02
           784   1.58831e+02   7.84000e+02  -8.25070e-01   9.29554e+01   1.60667e+02
           792   1.60182e+02   7.92000e+02  -8.35529e-01   9.29267e+01   1.62000e+02
           800   1.61550e+02   8.00000e+02  -8.36585e-01   9.29066e+01   1.63333e+02
           808   1.62890e+02   8.08000e+02  -8.47794e-01   9.28950e+01   1.64667e+02
           816   1.64249e+02   8.16000e+02  -8.56774e-01   9.28792e+01   1.66000e+02
           824   1.65600e+02   8.24000e+02  -8.71336e-01   9.28715e+01   1.67333e+02
           832   1.66955e+02   8.32000e+02  -8.82575e-01   9.28589e+01   1.68667e+02
           840   1.68308e+02   8.40000e+02  -8.94167e-01   9.28443e+01   1.70000e+02
           848   1.69650e+02   8.48000e+02  -9.07529e-01   9.28261e+01   1.71333e+02
           856   1.71000e+02   8.56000e+02  -9.17495e-01   9.28092e+01   1.72667e+02
           864   1.72348e+02   8.64000e+02  -9.27413e-01   9.27876e+01   1.74000e+02
           872   1.73715e+02   8.72000e+02  -9.39521e-01   9.27443e+01   1.75333e+02
           880   1.75065e+02   8.80000e+02  -9.51596e-01   9.27266e+01   1.76667e+02
           888   1.76412e+02   8.88000e+02  -9.65551e-01   9.27033e+01   1.78000e+02
           896   1.77769e+02   8.96000e+02  -9.73821e-01   9.26847e+01   1.79333e+02
           904   1.79133e+02   9.04000e+02  -9.82208e-01   9.26787e+01   1.80667e+02
           912   1.80478e+02   9.12000e+02  -9.93313e-01   9.26413e+01   1.82000e+02
           920   1.81839e+02   9.20000e+02  -1.00741e+00   9.26176e+01   1.83333e+02
           928   1.83189e+02   9.28000e+02  -1.01865e+00   9.25971e+01   1.84667e+02
           936   1.84546e+02   9.36000e+02  -1.03603e+00   9.25643e+01   1.86000e+02
           944   1.85892e+02   9.44000e+02  -1.05326e+00   9.25431e+01   1.87333e+02
           952   1.87241e+02   9.52000e+02  -1.06290e+00   9.24973e+01   1.88667e+02
           960   1.88610e+02   9.60000e+02  -1.07272e+00   9.24706e+01   1.90000e+02
           968   1.89958e+02   9.68000e+02  -1.07935e+00   9.24355e+01   1.91333e+02
           976   1.91306e+02   9.76000e+02  -1.09078e+00   9.24140e+01   1.92667e+02
           984   1.92659e+02   9.84000e+02  -1.10461e+00   9.23661e+01   1.94000e+02
           992   1.94009e+02   9.92000e+02  -1.11443e+00   9.23164e+01   1.95333e+02
          1000   1.95365e+02   1.00000e+03  -1.12746e+00   9.22941e+01   1.96667e+02
          1008   1.96726e+02   1.00800e+03  -1.13787e+00   9.22562e+01   1.98000e+02
          1016   1.98087e+02   1.01600e+03  -1.14508e+00   9.22382e+01   1.99333e+02
          1024   1.99438e+02   1.02400e+03  -1.15892e+00   9.21977e+01   2.00667e+02
          1032   2.00789e+02   1.03200e+03  -1.17432e+00   9.21498e+01   2.02000e+02
          1040   2.02154e+02   1.04000e+03  -1.19555e+00   9.20981e+01   2.03333e+02
          1048   2.03514e+02   1.04800e+03  -1.20707e+00   9.20510e+01   2.04667e+02
          1056   2.04859e+02   1.05600e+03  -1.21958e+00   9.20020e+01   2.06000e+02
          1064   2.06220e+02   1.06400e+03  -1.23047e+00   9.19495e+01   2.07333e+02
          1072   2.07565e+02   1.07200e+03  -1.23743e+00   9.19039e+01   2.08667e+02
          1080   2.08933e+02   1.08000e+03  -1.24985e+00   9.18601e+01   2.10000e+02
          1088   2.10278e+02   1.08800e+03  -1.26105e+00   9.18165e+01   2.11333e+02
          1096   2.11641e+02   1.09600e+03  -1.27339e+00   9.17718e+01   2.12667e+02
          1104   2.12995e+02   1.10400e+03  -1.28034e+00   9.16928e+01   2.14000e+02
          1112   2.14358e+02   1.11200e+03  -1.29650e+00   9.16391e+01   2.15333e+02
          1120   2.15704e+02   1.12000e+03  -1.31327e+00   9.15917e+01   2.16667e+02
          1128   2.17061e+02   1.12800e+03  -1.31866e+00   9.15087e+01   2.18000e+02
          1136   2.18416e+02   1.13600e+03  -1.32711e+00   9.14187e+01   2.19333e+02
          1144   2.19764e+02   1.14400e+03  -1.33836e+00   9.13765e+01   2.20667e+02
          1152   2.21127e+02   1.15200e+03  -1.34426e+00   9.13059e+01   2.22000e+02
          1160   2.22466e+02   1.16000e+03  -1.34940e+00   9.12246e+01   2.23333e+02
          1168   2.23818e+02   1.16800e+03  -1.35775e+00   9.11374e+01   2.24667e+02
          1176   2.25177e+02   1.17600e+03  -1.37396e+00   9.10552e+01   2.26000e+02
          1184   2.26536e+02   1.18400e+03  -1.38216e+00   9.09852e+01   2.27333e+02
          1192   2.27894e+02   1.19200e+03  -1.38959e+00   9.09111e+01   2.28667e+02
          1200   2.29251e+02   1.20000e+03  -1.40245e+00   9.08379e+01   2.30000e+02
          1208   2.30607e+02   1.20800e+03  -1.41304e+00   9.07545e+01   2.31333e+02
          1216   2.31973e+02   1.21600e+03  -1.42252e+00   9.06622e+01   2.32667e+02
          1224   2.33317e+02   1.22400e+03  -1.42526e+00   9.05803e+01   2.34000e+02
          1232   2.34668e+02   1.23200e+03  -1.42672e+00   9.04766e+01   2.35333e+02
          1240   2.36019e+02   1.24000e+03  -1.43029e+00   9.03825e+01   2.36667e+02
          1248   2.37377e+02   1.24800e+03  -1.43156e+00   9.02754e+01   2.38000e+02
          1256   2.38729e+02   1.25600e+03  -1.43087e+00   9.01804e+01   2.39333e+02
          1264   2.40082e+02   1.26400e+03  -1.43144e+00   9.00966e+01   2.40667e+02
          1272   2.41450e+02   1.27200e+03  -1.42781e+00   9.00129e+01   2.42000e+02
          1280   2.42797e+02   1.28000e+03  -1.41996e+00   8.99346e+01   2.43333e+02
          1288   2.44162e+02   1.28800e+03  -1.41241e+00   8.98383e+01   2.44667e+02
          1296   2.45521e+02   1.29600e+03  -1.40925e+00   8.97506e+01   2.46000e+02
          1304   2.46870e+02   1.30400e+03  -1.41224e+00   8.96623e+01   2.47333e+02
          1312   2.48221e+02   1.31200e+03  -1.40832e+00   8.95641e+01   2.48667e+02
          1320   2.49574e+02   1.32000e+03  -1.40944e+00   8.94702e+01   2.50000e+02
          1328   2.50939e+02   1.32800e+03  -1.41555e+00   8.93652e+01   2.51333e+02
          1336   2.52280e+02   1.33600e+03  -1.41352e+00   8.92835e+01   2.52667e+02
          1344   2.53633e+02   1.34400e+03  -1.41372e+00   8.91859e+01   2.54000e+02
          1352   2.54994e+02   1.35200e+03  -1.41805e+00   8.90970e+01   2.55333e+02
          1360   2.56339e+02   1.36000e+03  -1.41731e+00   8.90055e+01   2.56667e+02
          1368   2.57708e+02   1.36800e+03  -1.42102e+00   8.88975e+01   2.58000e+02
          1376   2.59062e+02   1.37600e+03  -1.43201e+00   8.87987e+01   2.59333e+02
          1384   2.60415e+02   1.38400e+03  -1.43772e+00   8.86991e+01   2.60667e+02
          1392   2.61769e+02   1.39200e+03  -1.44150e+00   8.86059e+01   2.62000e+02
          1400   2.63117e+02   1.40000e+03  -1.45441e+00   8.84980e+01   2.63333e+02
          1408   2.64466e+02   1.40800e+03  -1.47073e+00   8.83958e+01   2.64667e+02
          1416   2.65817e+02   1.41600e+03  -1.48900e+00   8.82927e+01   2.66000e+02
          1424   2.67175e+02   1.42400e+03  -1.50456e+00   8.81873e+01   2.67333e+02
          1432   2.68525e+02   1.43200e+03  -1.51804e+00   8.81036e+01   2.68667e+02
          1440   2.69889e+02   1.44000e+03  -1.52965e+00   8.80143e+01   2.70000e+02
          1448   2.71234e+02   1.44800e+03  -1.54011e+00   8.79105e+01   2.71333e+02
          1456   2.72568e+02   1.45600e+03  -1.54353e+00   8.78044e+01   2.72667e+02
          1464   2.73939e+02   1.46400e+03  -1.55269e+00   8.76905e+01   2.74000e+02
          1472   2.75294e+02   1.47200e+03  -1.56356e+00   8.75976e+01   2.75333e+02
          1480   2.76657e+02   1.48000e+03  -1.57061e+00   8.75148e+01   2.76667e+02
          1488   2.77999e+02   1.48800e+03  -1.57630e+00   8.74117e+01   2.78000e+02
          1496   2.79356e+02   1.49600e+03  -1.58108e+00   8.73099e+01   2.79333e+02
          1504   2.80704e+02   1.50400e+03  -1.57886e+00   8.72080e+01   2.80667e+02
          1512   2.82052e+02   1.51200e+03  -1.57257e+00   8.71196e+01   2.82000e+02
          1520   2.83415e+02   1.52000e+03  -1.57706e+00   8.70236e+01   2.83333e+02
          1528   2.84769e+02   1.52800e+03  -1.57610e+00   8.69320e+01   2.84667e+02
          1536   2.86124e+02   1.53600e+03  -1.57130e+00   8.68271e+01   2.86000e+02
          1544   2.87472e+02   1.54400e+03  -1.56658e+00   8.67446e+01   2.87333e+02
          1552   2.88822e+02   1.55200e+03  -1.56073e+00   8.66638e+01   2.88667e+02
          1560   2.90178e+02   1.56000e+03  -1.54821e+00   8.65672e+01   2.90000e+02
          1568   2.91518e+02   1.56800e+03  -1.54298e+00   8.64736e+01   2.91333e+02
          1576   2.92884e+02   1.57600e+03  -1.54619e+00   8.63946e+01   2.92667e+02
          1584   2.94234e+02   1.58400e+03  -1.54116e+00   8.62988e+01   2.94000e+02
          1592   2.95584e+02   1.59200e+03  -1.52805e+00   8.62033e+01   2.95333e+02
          1600   2.96943e+02   1.60000e+03  -1.51946e+00   8.61133e+01   2.96667e+02
          1608   2.98298e+02   1.60800e+03  -1.51895e+00   8.60292e+01   2.98000e+02
          1616   2.99655e+02   1.61600e+03  -1.51773e+00   8.59540e+01   2.99333e+02
          1624   3.00993e+02   1.62400e+03  -1.50947e+00   8.58810e+01   3.00667e+02
          1632   3.02355e+02   1.63200e+03  -1.49647e+00   8.57856e+01   3.02000e+02
          1640   3.03698e+02   1.64000e+03  -1.48808e+00   8.57025e+01   3.03333e+02
          1648   3.05036e+02   1.64800e+03  -1.48300e+00   8.56192e+01   3.04667e+02
          1656   3.06397e+02   1.65600e+03  -1.48023e+00   8.55505e+01   3.06000e+02
          1664   3.07758e+02   1.66400e+03  -1.47358e+00   8.54765e+01   3.07333e+02
          1672   3.09101e+02   1.67200e+03  -1.46013e+00   8.53937e+01   3.08667e+02
          1680   3.10459e+02   1.68000e+03  -1.45034e+00   8.53015e+01   3.10000e+02
          1688   3.11816e+02   1.68800e+03  -1.44783e+00   8.52295e+01   3.11333e+02
          1696   3.13164e+02   1.69600e+03  -1.44120e+00   8.51564e+01   3.12667e+02
          1704   3.14517e+02   1.70400e+03  -1.43318e+00   8.50901e+01   3.14000e+02
          1712   3.15873e+02   1.71200e+03  -1.42639e+00   8.50195e+01   3.15333e+02
          1720   3.17216e+02   1.72000e+03  -1.41244e+00   8.49448e+01   3.16667e+02
          1728   3.18572e+02   1.72800e+03  -1.39914e+00   8.48689e+01   3.18000e+02
          1736   3.19917e+02   1.73600e+03  -1.38371e+00   8.47893e+01   3.19333e+02
          1744   3.21277e+02   1.74400e+03  -1.36924e+00   8.47201e+01   3.20667e+02
          1752   3.22620e+02   1.75200e+03  -1.35448e+00   8.46244e+01   3.22000e+02
          1760   3.23962e+02   1.76000e+03  -1.34197e+00   8.45352e+01   3.23333e+02
          1768   3.25324e+02   1.76800e+03  -1.32980e+00   8.44836e+01   3.24667e+02
          1776   3.26681e+02   1.77600e+03  -1.31786e+00   8.44168e+01   3.26000e+02
          1784   3.28031e+02   1.78400e+03  -1.30440e+00   8.43334e+01   3.27333e+02
          1792   3.29383e+02   1.79200e+03  -1.29284e+00   8.42674e+01   3.28667e+02
          1800   3.30727e+02   1.80000e+03  -1.28569e+00   8.41906e+01   3.30000e+02
          1808   3.32079e+02   1.80800e+03  -1.26807e+00   8.41149e+01   3.31333e+02
          1816   3.33433e+02   1.81600e+03  -1.25273e+00   8.40340e+01   3.32667e+02
          1824   3.34783e+02   1.82400e+03  -1.23965e+00   8.39741e+01   3.34000e+02
          1832   3.36127e+02   1.83200e+03  -1.23576e+00   8.38957e+01   3.35333e+02
          1840   3.37485e+02   1.84000e+03  -1.22309e+00   8.38317e+01   3.36667e+02
          1848   3.38829e+02   1.84800e+03  -1.21142e+00   8.37691e+01   3.38000e+02
          1856   3.40192e+02   1.85600e+03  -1.19520e+00   8.36904e+01   3.39333e+02
          1864   3.41536e+02   1.86400e+03  -1.17526e+00   8.36160e+01   3.40667e+02
          1872   3.42893e+02   1.87200e+03  -1.16252e+00   8.35377e+01   3.42000e+02
          1880   3.44253e+02   1.88000e+03  -1.15070e+00   8.34888e+01   3.43333e+02
          1888   3.45577e+02   1.88800e+03  -1.14307e+00   8.34201e+01   3.44667e+02
          1896   3.46931e+02   1.89600e+03  -1.12320e+00   8.33333e+01   3.46000e+02
          1904   3.48294e+02   1.90400e+03  -1.10581e+00   8.32487e+01   3.47333e+02
          1912   3.49639e+02   1.91200e+03  -1.09438e+00   8.31753e+01   3.48667e+02
          1920   3.50989e+02   1.92000e+03  -1.08632e+00   8.31166e+01   3.50000e+02
          1928   3.52339e+02   1.92800e+03  -1.07193e+00   8.30454e+01   3.51333e+02
          1936   3.53684e+02   1.93600e+03  -1.05878e+00   8.29660e+01   3.52667e+02
          1944   3.55035e+02   1.94400e+03  -1.04665e+00   8.28870e+01   3.54000e+02
          1952   3.56384e+02   1.95200e+03  -1.04048e+00   8.27978e+01   3.55333e+02
          1960   3.57734e+02   1.96000e+03  -1.03224e+00   8.27248e+01   3.56667e+02
          1968   3.59084e+02   1.96800e+03  -1.01210e+00   8.26541e+01   3.58000e+02
          1976   3.60431e+02   1.97600e+03  -9.89855e-01   8.25751e+01   3.59333e+02
          1984   3.61778e+02   1.98400e+03  -9.68176e-01   8.24883e+01   3.60667e+02
          1992   3.63130e+02   1.99200e+03  -9.44033e-01   8.24059e+01   3.62000e+02
          2000   3.64469e+02   2.00000e+03  -9.25535e-01   8.23257e+01   3.63333e+02
          2008   3.65832e+02   2.00800e+03  -9.15565e-01   8.22558e+01   3.64667e+02
          2016   3.67182e+02   2.01600e+03  -9.04961e-01   8.21763e+01   3.66000e+02
          2024   3.68529e+02   2.02400e+03  -8.92322e-01   8.20933e+01   3.67333e+02
          2032   3.69875e+02   2.03200e+03  -8.82642e-01   8.20023e+01   3.68667e+02
          2040   3.71226e+02   2.04000e+03  -8.70866e-01   8.19233e+01   3.70000e+02
          2048   3.72578e+02   2.04800e+03  -8.60027e-01   8.18437e+01   3.71333e+02
          2056   3.73928e+02   2.05600e+03  -8.48454e-01   8.17597e+01   3.72667e+02
          2064   3.75267e+02   2.06400e+03  -8.36277e-01   8.16676e+01   3.74000e+02
          2072   3.76626e+02   2.07200e+03  -8.22212e-01   8.16054e+01   3.75333e+02
          2080   3.77975e+02   2.08000e+03  -8.02344e-01   8.15170e+01   3.76667e+02
          2088   3.79323e+02   2.08800e+03  -7.81251e-01   8.14111e+01   3.78000e+02
          2096   3.80672e+02   2.09600e+03  -7.59665e-01   8.13207e+01   3.79333e+02
          2104   3.82019e+02   2.10400e+03  -7.40827e-01   8.12289e+01   3.80667e+02
          2112   3.83356e+02   2.11200e+03  -7.26650e-01   8.11354e+01   3.82000e+02
          2120   3.84713e+02   2.12000e+03  -7.07626e-01   8.10542e+01   3.83333e+02
          2128   3.86059e+02   2.12800e+03  -6.83112e-01   8.09517e+01   3.84667e+02
          2136   3.87404e+02   2.13600e+03  -6.65952e-01   8.08490e+01   3.86000e+02
          2144   3.88755e+02   2.14400e+03  -6.54868e-01   8.07571e+01   3.87333e+02
          2152   3.90098e+02   2.15200e+03  -6.39200e-01   8.06672e+01   3.88667e+02
          2160   3.91449e+02   2.16000e+03  -6.19933e-01   8.05736e+01   3.90000e+02
          2168   3.92785e+02   2.16800e+03  -6.01973e-01   8.04702e+01   3.91333e+02
          2176   3.94139e+02   2.17600e+03  -5.80206e-01   8.03626e+01   3.92667e+02
          2184   3.95488e+02   2.18400e+03  -5.61502e-01   8.02690e+01   3.94000e+02
          2192   3.96826e+02   2.19200e+03  -5.43030e-01   8.01697e+01   3.95333e+02
          2200   3.98177e+02   2.20000e+03  -5.13969e-01   8.00600e+01   3.96667e+02
          2208   3.99526e+02   2.20800e+03  -4.88434e-01   7.99511e+01   3.98000e+02
          2216   4.00866e+02   2.21600e+03  -4.69041e-01   7.98408e+01   3.99333e+02
          2224   4.02221e+02   2.22400e+03  -4.45246e-01   7.97348e+01   4.00667e+02
          2232   4.03578e+02   2.23200e+03  -4.23645e-01   7.96352e+01   4.02000e+02
          2240   4.04908e+02   2.24000e+03  -4.05440e-01   7.95586e+01   4.03333e+02
          2248   4.06272e+02   2.24800e+03  -3.86339e-01   7.94486e+01   4.04667e+02
          2256   4.07622e+02   2.25600e+03  -3.53383e-01   7.93354e+01   4.06000e+02
          2264   4.08966e+02   2.26400e+03  -3.19179e-01   7.92118e+01   4.07333e+02
          2272   4.10310e+02   2.27200e+03  -2.88468e-01   7.90973e+01   4.08667e+02
          2280   4.11651e+02   2.28000e+03  -2.57099e-01   7.89744e+01   4.10000e+02
          2288   4.13003e+02   2.28800e+03  -2.30702e-01   7.88688e+01   4.11333e+02
          2296   4.14349e+02   2.29600e+03  -2.08218e-01   7.87733e+01   4.12667e+02
          2304   4.15697e+02   2.30400e+03  -1.87383e-01   7.86674e+01   4.14000e+02
          2312   4.17041e+02   2.31200e+03  -1.65520e-01   7.85426e+01   4.15333e+02
          2320   4.18383e+02   2.32000e+03  -1.43039e-01   7.84397e+01   4.16667e+02
          2328   4.19735e+02   2.32800e+03  -1.14223e-01   7.83157e+01   4.18000e+02
          2336   4.21067e+02   2.33600e+03  -7.91099e-02   7.82057e+01   4.19333e+02
          2344   4.22410e+02   2.34400e+03  -3.22524e-02   7.80936e+01   4.20667e+02
          2352   4.23757e+02   2.35200e+03   2.44418e-03   7.79734e+01   4.22000e+02
          2360   4.25104e+02   2.36000e+03   3.89179e-02   7.78625e+01   4.23333e+02
          2368   4.26447e+02   2.36800e+03   7.23661e-02   7.77254e+01   4.24667e+02
          2376   4.27794e+02   2.37600e+03   1.08809e-01   7.76094e+01   4.26000e+02
          2384   4.29136e+02   2.38400e+03   1.51548e-01   7.74953e+01   4.27333e+02
          2392   4.30495e+02   2.39200e+03   1.83945e-01   7.73819e+01   4.28667e+02
          2400   4.31838e+02   2.40000e+03   2.13660e-01   7.72511e+01   4.30000e+02
          2408   4.33176e+02   2.40800e+03   2.44999e-01   7.71422e+01   4.31333e+02
          2416   4.34518e+02   2.41600e+03   2.83079e-01   7.70290e+01   4.32667e+02
          2424   4.35866e+02   2.42400e+03   3.17333e-01   7.69260e+01   4.34000e+02
          2432   4.37208e+02   2.43200e+03   3.52281e-01   7.68044e+01   4.35333e+02
          2440   4.38549e+02   2.44000e+03   3.96510e-01   7.66762e+01   4.36667e+02
          2448   4.39896e+02   2.44800e+03   4.48581e-01   7.65461e+01   4.38000e+02
          2456   4.41248e+02   2.45600e+03   4.99045e-01   7.64212e+01   4.39333e+02
          2464   4.42604e+02   2.46400e+03   5.36307e-01   7.63003e+01   4.40667e+02
          2472   4.43935e+02   2.47200e+03   5.70791e-01   7.61949e+01   4.42000e+02
          2480   4.45276e+02   2.48000e+03   6.10632e-01   7.60746e+01   4.43333e+02
          2488   4.46625e+02   2.48800e+03   6.57766e-01   7.59506e+01   4.44667e+02
          2496   4.47964e+02   2.49600e+03   7.06864e-01   7.58450e+01   4.46000e+02
          2504   4.49301e+02   2.50400e+03   7.59045e-01   7.57230e+01   4.47333e+02
          2512   4.50646e+02   2.51200e+03   8.06042e-01   7.56047e+01   4.48667e+02
          2520   4.52003e+02   2.52000e+03   8.52929e-01   7.54859e+01   4.50000e+02
          2528   4.53330e+02   2.52800e+03   8.93489e-01   7.53647e+01   4.51333e+02
          2536   4.54675e+02   2.53600e+03   9.41705e-01   7.52542e+01   4.52667e+02
          2544   4.56018e+02   2.54400e+03   9.82218e-01   7.51497e+01   4.54000e+02
          2552   4.57364e+02   2.55200e+03   1.02165e+00   7.50277e+01   4.55333e+02
          2560   4.58699e+02   2.56000e+03   1.06595e+00   7.49034e+01   4.56667e+02
          2568   4.60043e+02   2.56800e+03   1.11093e+00   7.47792e+01   4.58000e+02
          2576   4.61378e+02   2.57600e+03   1.15967e+00   7.46516e+01   4.59333e+02
          2584   4.62728e+02   2.58400e+03   1.20793e+00   7.45564e+01   4.60667e+02
          2592   4.64076e+02   2.59200e+03   1.25646e+00   7.44495e+01   4.62000e+02
          2600   4.65411e+02   2.60000e+03   1.31187e+00   7.43262e+01   4.63333e+02
          2608   4.66761e+02   2.60800e+03   1.35946e+00   7.42146e+01   4.64667e+02
          2616   4.68098e+02   2.61600e+03   1.40928e+00   7.40984e+01   4.66000e+02
          2624   4.69445e+02   2.62400e+03   1.45473e+00   7.39850e+01   4.67333e+02
          2632   4.70778e+02   2.63200e+03   1.51023e+00   7.38867e+01   4.68667e+02
          2640   4.72119e+02   2.64000e+03   1.56339e+00   7.37516e+01   4.70000e+02
          2648   4.73468e+02   2.64800e+03   1.60591e+00   7.36345e+01   4.71333e+02
          2656   4.74809e+02   2.65600e+03   1.65765e+00   7.35258e+01   4.72667e+02
          2664   4.76150e+02   2.66400e+03   1.71453e+00   7.34102e+01   4.74000e+02
          2672   4.77485e+02   2.67200e+03   1.76605e+00   7.33181e+01   4.75333e+02
          2680   4.78835e+02   2.68000e+03   1.81260e+00   7.31944e+01   4.76667e+02
          2688   4.80170e+02   2.68800e+03   1.86365e+00   7.30808e+01   4.78000e+02
          2696   4.81517e+02   2.69600e+03   1.91151e+00   7.29770e+01   4.79333e+02
          2704   4.82862e+02   2.70400e+03   1.96681e+00   7.28772e+01   4.80667e+02
          2712   4.84196e+02   2.71200e+03   2.02419e+00   7.27853e+01   4.82000e+02
          2720   4.85541e+02   2.72000e+03   2.07321e+00   7.26698e+01   4.83333e+02
          2728   4.86878e+02   2.72800e+03   2.12880e+00   7.25561e+01   4.84667e+02
          2736   4.88230e+02   2.73600e+03   2.17600e+00   7.24307e+01   4.86000e+02
          2744   4.89575e+02   2.74400e+03   2.22122e+00   7.23314e+01   4.87333e+02
          2752   4.90913e+02   2.75200e+03   2.26930e+00   7.22372e+01   4.88667e+02
          2760   4.92254e+02   2.76000e+03   2.31584e+00   7.21193e+01   4.90000e+02
          2768   4.93597e+02   2.76800e+03   2.36632e+00   7.20091e+01   4.91333e+02
          2776   4.94937e+02   2.77600e+03   2.42687e+00   7.19216e+01   4.92667e+02
          2784   4.96269e+02   2.78400e+03   2.48420e+00   7.18231e+01   4.94000e+02
          2792   4.97617e+02   2.79200e+03   2.53383e+00   7.17194e+01   4.95333e+02
          2800   4.98965e+02   2.80000e+03   2.57903e+00   7.16022e+01   4.96667e+02
          2808   5.00302e+02   2.80800e+03   2.62515e+00   7.14785e+01   4.98000e+02
          2816   5.01650e+02   2.81600e+03   2.67383e+00   7.13619e+01   4.99333e+02
          2824   5.02996e+02   2.82400e+03   2.72597e+00   7.12566e+01   5.00667e+02
          2832   5.04331e+02   2.83200e+03   2.77190e+00   7.11455e+01   5.02000e+02
          2840   5.05680e+02   2.84000e+03   2.81777e+00   7.10310e+01   5.03333e+02
          2848   5.07024e+02   2.84800e+03   2.86155e+00   7.09254e+01   5.04667e+02
          2856   5.08368e+02   2.85600e+03   2.90701e+00   7.08229e+01   5.06000e+02
          2864   5.09709e+02   2.86400e+03   2.95000e+00   7.07405e+01   5.07333e+02
          2872   5.11053e+02   2.87200e+03   2.99085e+00   7.06282e+01   5.08667e+02
          2880   5.12410e+02   2.88000e+03   3.03321e+00   7.05069e+01   5.10000e+02
          2888   5.13743e+02   2.88800e+03   3.07931e+00   7.03956e+01   5.11333e+02
          2896   5.15098e+02   2.89600e+03   3.13403e+00   7.02803e+01   5.12667e+02
          2904   5.16450e+02   2.90400e+03   3.18591e+00   7.01706e+01   5.14000e+02
          2912   5.17785e+02   2.91200e+03   3.22722e+00   7.00592e+01   5.15333e+02
          2920   5.19133e+02   2.92000e+03   3.27127e+00   6.99530e+01   5.16667e+02
          2928   5.20475e+02   2.92800e+03   3.32107e+00   6.98381e+01   5.18000e+02
          2936   5.21830e+02   2.93600e+03   3.36557e+00   6.97347e+01   5.19333e+02
          2944   5.23167e+02   2.94400e+03   3.41062e+00   6.96203e+01   5.20667e+02
          2952   5.24523e+02   2.95200e+03   3.44900e+00   6.94900e+01   5.22000e+02
          2960   5.25860e+02   2.96000e+03   3.47996e+00   6.93494e+01   5.23333e+02
          2968   5.27218e+02   2.96800e+03   3.51643e+00   6.92324e+01   5.24667e+02
          2976   5.28563e+02   2.97600e+03   3.54266e+00   6.91188e+01   5.26000e+02
          2984   5.29906e+02   2.98400e+03   3.57648e+00   6.89887e+01   5.27333e+02
          2992   5.31248e+02   2.99200e+03   3.62323e+00   6.88683e+01   5.28667e+02
          3000   5.32595e+02   3.00000e+03   3.66754e+00   6.87450e+01   5.30000e+02
          3008   5.33946e+02   3.00800e+03   3.70484e+00   6.85924e+01   5.31333e+02
          3016   5.35288e+02   3.01600e+03   3.74644e+00   6.84694e+01   5.32667e+02
          3024   5.36632e+02   3.02400e+03   3.77815e+00   6.83425e+01   5.34000e+02
          3032   5.37976e+02   3.03200e+03   3.80629e+00   6.82009e+01   5.35333e+02
          3040   5.39316e+02   3.04000e+03   3.82224e+00   6.80610e+01   5.36667e+02
          3048   5.40660e+02   3.04800e+03   3.84531e+00   6.79233e+01   5.38000e+02
          3056   5.42010e+02   3.05600e+03   3.87461e+00   6.77833e+01   5.39333e+02
          3064   5.43357e+02   3.06400e+03   3.90728e+00   6.76314e+01   5.40667e+02
          3072   5.44711e+02   3.07200e+03   3.92835e+00   6.74838e+01   5.42000e+02
          3080   5.46044e+02   3.08000e+03   3.95465e+00   6.73208e+01   5.43333e+02
          3088   5.47401e+02   3.08800e+03   3.98317e+00   6.71674e+01   5.44667e+02
          3096   5.48750e+02   3.09600e+03   4.00322e+00   6.70017e+01   5.46000e+02
          3104   5.50102e+02   3.10400e+03   4.02898e+00   6.68511e+01   5.47333e+02
          3112   5.51440e+02   3.11200e+03   4.06167e+00   6.66859e+01   5.48667e+02
          3120   5.52784e+02   3.12000e+03   4.09670e+00   6.65110e+01   5.50000e+02
          3128   5.54134e+02   3.12800e+03   4.12999e+00   6.63380e+01   5.51333e+02
          3136   5.55474e+02   3.13600e+03   4.15923e+00   6.61686e+01   5.52667e+02
          3144   5.56818e+02   3.14400e+03   4.17623e+00   6.59883e+01   5.54000e+02
          3152   5.58166e+02   3.15200e+03   4.19626e+00   6.58142e+01   5.55333e+02
          3160   5.59519e+02   3.16000e+03   4.20859e+00   6.56420e+01   5.56667e+02
          3168   5.60859e+02   3.16800e+03   4.23103e+00   6.54611e+01   5.58000e+02
          3176   5.62201e+02   3.17600e+03   4.25341e+00   6.52817e+01   5.59333e+02
          3184   5.63545e+02   3.18400e+03   4.27632e+00   6.50971e+01   5.60667e+02
          3192   5.64893e+02   3.19200e+03   4.29281e+00   6.48943e+01   5.62000e+02
          3200   5.66247e+02   3.20000e+03   4.31299e+00   6.46951e+01   5.63333e+02
          3208   5.67589e+02   3.20800e+03   4.32651e+00   6.45032e+01   5.64667e+02
          3216   5.68927e+02   3.21600e+03   4.33719e+00   6.43049e+01   5.66000e+02
          3224   5.70286e+02   3.22400e+03   4.34506e+00   6.41028e+01   5.67333e+02
          3232   5.71631e+02   3.23200e+03   4.34468e+00   6.38941e+01   5.68667e+02
          3240   5.72974e+02   3.24000e+03   4.34722e+00   6.36851e+01   5.70000e+02
          3248   5.74327e+02   3.24800e+03   4.36015e+00   6.34694e+01   5.71333e+02
          3256   5.75671e+02   3.25600e+03   4.37625e+00   6.32302e+01   5.72667e+02
          3264   5.77021e+02   3.26400e+03   4.38929e+00   6.29974e+01   5.74000e+02
          3272   5.78370e+02   3.27200e+03   4.39730e+00   6.27882e+01   5.75333e+02
          3280   5.79713e+02   3.28000e+03   4.40991e+00   6.25553e+01   5.76667e+02
          3288   5.81065e+02   3.28800e+03   4.41360e+00   6.23157e+01   5.78000e+02
          3296   5.82403e+02   3.29600e+03   4.40957e+00   6.20627e+01   5.79333e+02
          3304   5.83752e+02   3.30400e+03   4.41075e+00   6.18119e+01   5.80667e+02
          3312   5.85098e+02   3.31200e+03   4.41029e+00   6.15474e+01   5.82000e+02
          3320   5.86437e+02   3.32000e+03   4.41069e+00   6.12929e+01   5.83333e+02
          3328   5.87782e+02   3.32800e+03   4.39638e+00   6.10406e+01   5.84667e+02
          3336   5.89138e+02   3.33600e+03   4.37768e+00   6.07696e+01   5.86000e+02
          3344   5.90481e+02   3.34400e+03   4.36262e+00   6.04842e+01   5.87333e+02
          3352   5.91817e+02   3.35200e+03   4.34199e+00   6.02026e+01   5.88667e+02
          3360   5.93164e+02   3.36000e+03   4.32729e+00   5.99063e+01   5.90000e+02
          3368   5.94508e+02   3.36800e+03   4.31309e+00   5.96239e+01   5.91333e+02
          3376   5.95858e+02   3.37600e+03   4.29674e+00   5.93240e+01   5.92667e+02
          3384   5.97207e+02   3.38400e+03   4.28231e+00   5.90159e+01   5.94000e+02
          3392   5.98541e+02   3.39200e+03   4.27464e+00   5.86980e+01   5.95333e+02
          3400   5.99887e+02   3.40000e+03   4.27203e+00   5.84025e+01   5.96667e+02
          3408   6.01239e+02   3.40800e+03   4.26555e+00   5.80750e+01   5.98000e+02
          3416   6.02590e+02   3.41600e+03   4.26414e+00   5.77420e+01   5.99333e+02
          3424   6.03929e+02   3.42400e+03   4.25542e+00   5.74081e+01   6.00667e+02
          3432   6.05268e+02   3.43200e+03   4.24378e+00   5.70972e+01   6.02000e+02
          3440   6.06630e+02   3.44000e+03   4.24363e+00   5.67545e+01   6.03333e+02
          3448   6.07968e+02   3.44800e+03   4.25419e+00   5.64077e+01   6.04667e+02
          3456   6.09308e+02   3.45600e+03   4.26918e+00   5.60542e+01   6.06000e+02
          3464   6.10660e+02   3.46400e+03   4.27621e+00   5.57201e+01   6.07333e+02
          3472   6.12006e+02   3.47200e+03   4.29562e+00   5.53721e+01   6.08667e+02
          3480   6.13358e+02   3.48000e+03   4.30939e+00   5.50282e+01   6.10000e+02
          3488   6.14704e+02   3.48800e+03   4.34057e+00   5.46625e+01   6.11333e+02
          3496   6.16070e+02   3.49600e+03   4.39269e+00   5.42944e+01   6.12667e+02
          3504   6.17418e+02   3.50400e+03   4.42479e+00   5.39436e+01   6.14000e+02
          3512   6.18757e+02   3.51200e+03   4.46356e+00   5.35970e+01   6.15333e+02
          3520   6.20102e+02   3.52000e+03   4.52349e+00   5.32361e+01   6.16667e+02
          3528   6.21454e+02   3.52800e+03   4.60212e+00   5.28728e+01   6.18000e+02
          3536   6.22799e+02   3.53600e+03   4.69190e+00   5.24969e+01   6.19333e+02
          3544   6.24143e+02   3.54400e+03   4.77843e+00   5.21296e+01   6.20667e+02
          3552   6.25490e+02   3.55200e+03   4.85527e+00   5.17554e+01   6.22000e+02
          3560   6.26831e+02   3.56000e+03   4.93269e+00   5.14221e+01   6.23333e+02
          3568   6.28171e+02   3.56800e+03   5.02385e+00   5.10793e+01   6.24667e+02
          3576   6.29529e+02   3.57600e+03   5.11135e+00   5.07303e+01   6.26000e+02
          3584   6.30874e+02   3.58400e+03   5.19957e+00   5.04077e+01   6.27333e+02
          3592   6.32220e+02   3.59200e+03   5.30607e+00   5.00592e+01   6.28667e+02
          3600   6.33575e+02   3.60000e+03   5.40294e+00   4.97141e+01   6.30000e+02
          3608   6.34916e+02   3.60800e+03   5.51869e+00   4.93872e+01   6.31333e+02
          3616   6.36259e+02   3.61600e+03   5.64567e+00   4.90688e+01   6.32667e+02
          3624   6.37615e+02   3.62400e+03   5.75148e+00   4.87389e+01   6.34000e+02
          3632   6.38974e+02   3.63200e+03   5.85492e+00   4.84512e+01   6.35333e+02
          3640   6.40321e+02   3.64000e+03   5.96249e+00   4.81520e+01   6.36667e+02
          3648   6.41666e+02   3.64800e+03   6.05783e+00   4.78286e+01   6.38000e+02
          3656   6.43011e+02   3.65600e+03   6.16471e+00   4.75128e+01   6.39333e+02
          3664   6.44358e+02   3.66400e+03   6.27373e+00   4.72185e+01   6.40667e+02
          3672   6.45707e+02   3.67200e+03   6.38451e+00   4.69357e+01   6.42000e+02
          3680   6.47048e+02   3.68000e+03   6.48775e+00   4.66338e+01   6.43333e+02
          3688   6.48399e+02   3.68800e+03   6.58594e+00   4.63460e+01   6.44667e+02
          3696   6.49737e+02   3.69600e+03   6.68990e+00   4.60373e+01   6.46000e+02
          3704   6.51084e+02   3.70400e+03   6.77459e+00   4.57402e+01   6.47333e+02
          3712   6.52430e+02   3.71200e+03   6.85165e+00   4.54728e+01   6.48667e+02
          3720   6.53770e+02   3.72000e+03   6.91972e+00   4.52084e+01   6.50000e+02
          3728   6.55122e+02   3.72800e+03   6.97859e+00   4.49436e+01   6.51333e+02
          3736   6.56475e+02   3.73600e+03   7.04357e+00   4.46937e+01   6.52667e+02
          3744   6.57823e+02   3.74400e+03   7.09856e+00   4.44247e+01   6.54000e+02
          3752   6.59161e+02   3.75200e+03   7.14280e+00   4.41493e+01   6.55333e+02
          3760   6.60508e+02   3.76000e+03   7.20354e+00   4.38787e+01   6.56667e+02
          3768   6.61857e+02   3.76800e+03   7.26740e+00   4.36165e+01   6.58000e+02
          3776   6.63198e+02   3.77600e+03   7.33173e+00   4.33548e+01   6.59333e+02
          3784   6.64552e+02   3.78400e+03   7.37182e+00   4.30701e+01   6.60667e+02
          3792   6.65905e+02   3.79200e+03   7.40050e+00   4.28074e+01   6.62000e+02
          3800   6.67243e+02   3.80000e+03   7.42794e+00   4.25662e+01   6.63333e+02
          3808   6.68590e+02   3.80800e+03   7.45349e+00   4.22957e+01   6.64667e+02
          3816   6.69933e+02   3.81600e+03   7.47585e+00   4.20340e+01   6.66000e+02
          3824   6.71286e+02   3.82400e+03   7.49956e+00   4.17667e+01   6.67333e+02
          3832   6.72629e+02   3.83200e+03   7.51843e+00   4.14728e+01   6.68667e+02
          3840   6.73981e+02   3.84000e+03   7.52801e+00   4.12153e+01   6.70000e+02
          3848   6.75323e+02   3.84800e+03   7.53301e+00   4.09494e+01   6.71333e+02
          3856   6.76660e+02   3.85600e+03   7.54020e+00   4.06609e+01   6.72667e+02
          3864   6.78019e+02   3.86400e+03   7.54339e+00   4.03839e+01   6.74000e+02
          3872   6.79365e+02   3.87200e+03   7.53814e+00   4.01034e+01   6.75333e+02
          3880   6.80707e+02   3.88000e+03   7.53652e+00   3.98212e+01   6.76667e+02
          3888   6.82063e+02   3.88800e+03   7.51443e+00   3.95215e+01   6.78000e+02
          3896   6.83405e+02   3.89600e+03   7.50651e+00   3.92465e+01   6.79333e+02
          3904   6.84751e+02   3.90400e+03   7.51330e+00   3.89472e+01   6.80667e+02
          3912   6.86101e+02   3.91200e+03   7.51131e+00   3.86370e+01   6.82000e+02
          3920   6.87447e+02   3.92000e+03   7.50339e+00   3.83163e+01   6.83333e+02
          3928   6.88787e+02   3.92800e+03   7.50246e+00   3.80190e+01   6.84667e+02
          3936   6.90140e+02   3.93600e+03   7.50067e+00   3.77217e+01   6.86000e+02
          3944   6.91486e+02   3.94400e+03   7.48634e+00   3.74273e+01   6.87333e+02
          3952   6.92828e+02   3.95200e+03   7.46198e+00   3.71077e+01   6.88667e+02
          3960   6.94173e+02   3.96000e+03   7.44720e+00   3.67857e+01   6.90000e+02
          3968   6.95518e+02   3.96800e+03   7.42537e+00   3.64751e+01   6.91333e+02
          3976   6.96866e+02   3.97600e+03   7.40090e+00   3.61547e+01   6.92667e+02
          3984   6.98206e+02   3.98400e+03   7.38969e+00   3.58267e+01   6.94000e+02
          3992   6.99550e+02   3.99200e+03   7.37618e+00   3.54936e+01   6.95333e+02
          4000   7.00886e+02   4.00000e+03   7.35805e+00   3.51523e+01   6.96667e+02
          4008   7.02238e+02   4.00800e+03   7.32253e+00   3.48265e+01   6.98000e+02
          4016   7.03591e+02   4.01600e+03   7.28992e+00   3.44913e+01   6.99333e+02
          4024   7.04929e+02   4.02400e+03   7.27525e+00   3.41557e+01   7.00667e+02
          4032   7.06281e+02   4.03200e+03   7.26157e+00   3.38012e+01   7.02000e+02
          4040   7.07629e+02   4.04000e+03   7.21836e+00   3.34611e+01   7.03333e+02
          4048   7.08973e+02   4.04800e+03   7.18868e+00   3.31152e+01   7.04667e+02
          4056   7.10319e+02   4.05600e+03   7.16788e+00   3.27784e+01   7.06000e+02
          4064   7.11666e+02   4.06400e+03   7.15213e+00   3.24461e+01   7.07333e+02
          4072   7.13003e+02   4.07200e+03   7.12358e+00   3.20749e+01   7.08667e+02
          4080   7.14356e+02   4.08000e+03   7.09993e+00   3.17420e+01   7.10000e+02
          4088   7.15701e+02   4.08800e+03   7.07620e+00   3.13709e+01   7.11333e+02
          4096   7.17050e+02   4.09600e+03   7.04750e+00   3.10269e+01   7.12667e+02
          4104   7.18396e+02   4.10400e+03   7.01320e+00   3.06802e+01   7.14000e+02
          4112   7.19743e+02   4.11200e+03   6.98809e+00   3.03211e+01   7.15333e+02
          4120   7.21090e+02   4.12000e+03   6.97718e+00   2.99948e+01   7.16667e+02
          4128   7.22434e+02   4.12800e+03   6.96401e+00   2.96291e+01   7.18000e+02
          4136   7.23777e+02   4.13600e+03   6.94368e+00   2.92692e+01   7.19333e+02
          4144   7.25127e+02   4.14400e+03   6.92785e+00   2.89092e+01   7.20667e+02
          4152   7.26472e+02   4.15200e+03   6.92719e+00   2.85724e+01   7.22000e+02
          4160   7.27811e+02   4.16000e+03   6.90573e+00   2.82350e+01   7.23333e+02
          4168   7.29158e+02   4.16800e+03   6.87723e+00   2.78812e+01   7.24667e+02
          4176   7.30520e+02   4.17600e+03   6.86210e+00   2.75501e+01   7.26000e+02
          4184   7.31851e+02   4.18400e+03   6.85178e+00   2.71953e+01   7.27333e+02
          4192   7.33205e+02   4.19200e+03   6.83117e+00   2.68618e+01   7.28667e+02
          4200   7.34548e+02   4.20000e+03   6.81539e+00   2.65301e+01   7.30000e+02
          4208   7.35897e+02   4.20800e+03   6.80841e+00   2.61854e+01   7.31333e+02
          4216   7.37239e+02   4.21600e+03   6.79164e+00   2.58662e+01   7.32667e+02
          4224   7.38582e+02   4.22400e+03   6.77491e+00   2.55248e+01   7.34000e+02
          4232   7.39939e+02   4.23200e+03   6.75746e+00   2.52071e+01   7.35333e+02
          4240   7.41285e+02   4.24000e+03   6.74315e+00   2.48713e+01   7.36667e+02
          4248   7.42627e+02   4.24800e+03   6.72966e+00   2.45485e+01   7.38000e+02
          4256   7.43980e+02   4.25600e+03   6.70634e+00   2.42336e+01   7.39333e+02
          4264   7.45328e+02   4.26400e+03   6.68397e+00   2.39204e+01   7.40667e+02
          4272   7.46666e+02   4.27200e+03   6.66318e+00   2.36229e+01   7.42000e+02
          4280   7.48017e+02   4.28000e+03   6.62648e+00   2.33165e+01   7.43333e+02
          4288   7.49358e+02   4.28800e+03   6.60191e+00   2.29982e+01   7.44667e+02
          4296   7.50705e+02   4.29600e+03   6.58395e+00   2.27078e+01   7.46000e+02
          4304   7.52056e+02   4.30400e+03   6.57165e+00   2.24057e+01   7.47333e+02
          4312   7.53412e+02   4.31200e+03   6.55650e+00   2.21196e+01   7.48667e+02
          4320   7.54757e+02   4.32000e+03   6.54518e+00   2.18367e+01   7.50000e+02
          4328   7.56091e+02   4.32800e+03   6.52715e+00   2.15458e+01   7.51333e+02
          4336   7.57440e+02   4.33600e+03   6.51204e+00   2.12499e+01   7.52667e+02
          4344   7.58790e+02   4.34400e+03   6.48155e+00   2.09506e+01   7.54000e+02
          4352   7.60129e+02   4.35200e+03   6.45771e+00   2.06972e+01   7.55333e+02
          4360   7.61480e+02   4.36000e+03   6.43678e+00   2.04221e+01   7.56667e+02
          4368   7.62828e+02   4.36800e+03   6.38825e+00   2.01462e+01   7.58000e+02
          4376   7.64162e+02   4.37600e+03   6.34696e+00   1.99121e+01   7.59333e+02
          4384   7.65520e+02   4.38400e+03   6.30446e+00   1.96643e+01   7.60667e+02
          4392   7.66845e+02   4.39200e+03   6.28958e+00   1.94118e+01   7.62000e+02
          4400   7.68213e+02   4.40000e+03   6.27048e+00   1.91731e+01   7.63333e+02
          4408   7.69556e+02   4.40800e+03   6.22575e+00   1.89157e+01   7.64667e+02
          4416   7.70902e+02   4.41600e+03   6.17919e+00   1.86919e+01   7.66000e+02
          4424   7.72249e+02   4.42400e+03   6.13224e+00   1.84655e+01   7.67333e+02
          4432   7.73596e+02   4.43200e+03   6.08350e+00   1.82313e+01   7.68667e+02
          4440   7.74939e+02   4.44000e+03   6.03333e+00   1.80201e+01   7.70000e+02
          4448   7.76291e+02   4.44800e+03   5.99570e+00   1.78012e+01   7.71333e+02
          4456   7.77631e+02   4.45600e+03   5.94485e+00   1.75896e+01   7.72667e+02
          4464   7.78972e+02   4.46400e+03   5.89651e+00   1.73755e+01   7.74000e+02
          4472   7.80332e+02   4.47200e+03   5.86146e+00   1.71757e+01   7.75333e+02
          4480   7.81680e+02   4.48000e+03   5.80710e+00   1.69776e+01   7.76667e+02
          4488   7.83030e+02   4.48800e+03   5.74882e+00   1.67791e+01   7.78000e+02
          4496   7.84381e+02   4.49600e+03   5.70082e+00   1.66080e+01   7.79333e+02
          4504   7.85729e+02   4.50400e+03   5.65503e+00   1.64377e+01   7.80667e+02
          4512   7.87081e+02   4.51200e+03   5.60436e+00   1.62533e+01   7.82000e+02
          4520   7.88421e+02   4.52000e+03   5.56899e+00   1.61036e+01   7.83333e+02
          4528   7.89767e+02   4.52800e+03   5.52589e+00   1.59421e+01   7.84667e+02
          4536   7.91114e+02   4.53600e+03   5.47635e+00   1.57743e+01   7.86000e+02
          4544   7.92461e+02   4.54400e+03   5.43344e+00   1.56368e+01   7.87333e+02
          4552   7.93806e+02   4.55200e+03   5.38578e+00   1.54891e+01   7.88667e+02
          4560   7.95146e+02   4.56000e+03   5.33515e+00   1.53514e+01   7.90000e+02
          4568   7.96495e+02   4.56800e+03   5.28336e+00   1.52180e+01   7.91333e+02
          4576   7.97850e+02   4.57600e+03   5.22538e+00   1.50848e+01   7.92667e+02
          4584   7.99196e+02   4.58400e+03   5.19336e+00   1.49747e+01   7.94000e+02
          4592   8.00542e+02   4.59200e+03   5.16138e+00   1.48728e+01   7.95333e+02
          4600   8.01899e+02   4.60000e+03   5.12112e+00   1.47474e+01   7.96667e+02
          4608   8.03237e+02   4.60800e+03   5.07702e+00   1.46438e+01   7.98000e+02
          4616   8.04608e+02   4.61600e+03   5.04994e+00   1.45433e+01   7.99333e+02
          4620   8.05272e+02   4.62000e+03   5.04180e+00   1.45044e+01   8.00000e+02
!&20250826-02 TTF filled